time,ax,ay,az
0.00,0.0,0.25,0.0
0.01,0.006279051952931338,0.24996915812041515,0.06279051952931337
0.02,0.012533323356430426,0.2498766400914329,0.12533323356430426
0.03,0.01873813145857246,0.2497224687404925,0.1873813145857246
0.04,0.02486898871648548,0.2495066821070679,0.2486898871648548
0.05,0.03090169943749474,0.249229333433282,0.3090169943749474
0.06,0.03681245526846779,0.24889049115077,0.3681245526846779
0.07,0.04257792915650727,0.24849023886379493,0.4257792915650727
0.08,0.04817536741017153,0.24802867532861947,0.4817536741017153
0.09,0.05358267949789967,0.24750591442913938,0.5358267949789967
0.10,0.058778525229247314,0.24692208514878444,0.5877852522924731
0.11,0.06374239897486897,0.24627733153869347,0.6374239897486896
0.12,0.06845471059286887,0.24557181268217218,0.6845471059286886
0.13,0.07289686274214116,0.24480570265544144,0.7289686274214116
0.14,0.07705132427757894,0.24397919048468686,0.7705132427757893
0.15,0.08090169943749476,0.24309248009941914,0.8090169943749475
0.16,0.08443279255020152,0.24214579028215777,0.8443279255020151
0.17,0.08763066800438638,0.24113935461444952,0.8763066800438637
0.18,0.09048270524660196,0.24007342141923577,0.9048270524660196
0.19,0.09297764858882514,0.23894825369958253,0.9297764858882513
0.20,0.09510565162951536,0.23776412907378838,0.9510565162951535
0.21,0.09685831611286311,0.23652133970688632,0.9685831611286311
0.22,0.09822872507286887,0.23522019223855636,0.9822872507286886
0.23,0.0992114701314478,0.23386100770746684,0.9921147013144779
0.24,0.09980267284282716,0.23244412147206286,0.9980267284282716
0.25,0.1,0.23096988312782168,1.0
0.26,0.09980267284282716,0.22943865642099529,0.9980267284282716
0.27,0.09921147013144778,0.22785081915886132,0.9921147013144778
0.28,0.09822872507286887,0.22620676311650487,0.9822872507286886
0.29,0.09685831611286312,0.2245068939401539,0.9685831611286312
0.30,0.09510565162951537,0.22275163104709197,0.9510565162951536
0.31,0.09297764858882514,0.22094140752217337,0.9297764858882513
0.32,0.09048270524660196,0.2190766700109659,0.9048270524660195
0.33,0.08763066800438635,0.2171578786095478,0.8763066800438635
0.34,0.0844327925502015,0.2151855067509859,0.844327925502015
0.35,0.08090169943749476,0.21316004108852304,0.8090169943749475
0.36,0.07705132427757894,0.21108198137550377,0.7705132427757893
0.37,0.07289686274214115,0.20895184034206757,0.7289686274214114
0.38,0.06845471059286888,0.20677014356864046,0.6845471059286888
0.39,0.06374239897486898,0.20453742935625585,0.6374239897486899
0.40,0.05877852522924733,0.20225424859373686,0.5877852522924732
0.41,0.0535826794978997,0.19992116462177265,0.535826794978997
0.42,0.04817536741017156,0.1975387530939226,0.4817536741017156
0.43,0.042577929156507294,0.19510760183458245,0.4257792915650729
0.44,0.03681245526846782,0.1926283106939473,0.36812455268467814
0.45,0.030901699437494753,0.19010149140000773,0.3090169943749475
0.46,0.024868988716485484,0.1875277674076149,0.24868988716485482
0.47,0.0187381314585725,0.18490777374465245,0.18738131458572502
0.48,0.012533323356430454,0.1822421568553529,0.12533323356430454
0.49,0.006279051952931359,0.1795315744407972,0.06279051952931358
0.50,1.2246467991473533e-17,0.1767766952966369,1.2246467991473532e-16
0.51,-0.006279051952931335,0.17397819914807858,-0.06279051952931335
0.52,-0.01253332335643043,0.17113677648217215,-0.12533323356430429
0.53,-0.018738131458572477,0.16825312837744333,-0.18738131458572477
0.54,-0.024868988716485504,0.16532796633091296,-0.24868988716485502
0.55,-0.030901699437494774,0.1623620120825459,-0.30901699437494773
0.56,-0.03681245526846783,0.1593559974371724,-0.3681245526846783
0.57,-0.04257792915650723,0.15631066408392633,-0.42577929156507227
0.58,-0.048175367410171505,0.15322676341324415,-0.481753674101715
0.59,-0.053582679497899646,0.15010505633147103,-0.5358267949789964
0.60,-0.05877852522924731,0.14694631307311828,-0.587785252292473
0.61,-0.06374239897486897,0.14375131301081964,-0.6374239897486896
0.62,-0.06845471059286888,0.14052084446303265,-0.6845471059286887
0.63,-0.07289686274214113,0.13725570449953295,-0.7289686274214113
0.64,-0.07705132427757894,0.13395669874474914,-0.7705132427757894
0.65,-0.08090169943749474,0.13062464117898723,-0.8090169943749473
0.66,-0.08443279255020153,0.1272603539375928,-0.8443279255020153
0.67,-0.08763066800438636,0.12386466710810189,-0.8763066800438636
0.68,-0.09048270524660199,0.12043841852542879,-0.9048270524660198
0.69,-0.09297764858882512,0.11698245356514338,-0.9297764858882511
0.70,-0.09510565162951536,0.1134976249348867,-0.9510565162951535
0.71,-0.09685831611286311,0.10998479246397881,-0.968583161128631
0.72,-0.09822872507286888,0.10644482289126816,-0.9822872507286887
0.73,-0.09921147013144778,0.10287858965127722,-0.9921147013144778
0.74,-0.09980267284282716,0.09928697265869514,-0.9980267284282716
0.75,-0.1,0.09567085809127246,-1.0
0.76,-0.09980267284282716,0.09203113817116952,-0.9980267284282716
0.77,-0.0992114701314478,0.08836871094481429,-0.9921147013144779
0.78,-0.09822872507286888,0.08468448006132287,-0.9822872507286887
0.79,-0.09685831611286311,0.08097935454953735,-0.9685831611286311
0.80,-0.09510565162951537,0.07725424859373686,-0.9510565162951536
0.81,-0.09297764858882512,0.07351008130807597,-0.9297764858882512
0.82,-0.090482705246602,0.06974777650980737,-0.9048270524660199
0.83,-0.08763066800438639,0.06596826249134324,-0.8763066800438638
0.84,-0.08443279255020156,0.06217247179121374,-0.8443279255020155
0.85,-0.08090169943749476,0.05836134096397637,-0.8090169943749476
0.86,-0.07705132427757896,0.054535810349135676,-0.7705132427757896
0.87,-0.07289686274214116,0.05069682383912812,-0.7289686274214116
0.88,-0.0684547105928689,0.046845328646431185,-0.684547105928689
0.89,-0.06374239897486897,0.04298227506985238,-0.6374239897486896
0.90,-0.05877852522924734,0.03910861626005773,-0.5877852522924734
0.91,-0.05358267949789963,0.035225307984395646,-0.5358267949789963
0.92,-0.04817536741017153,0.031333308391076065,-0.4817536741017153
0.93,-0.042577929156507224,0.027433577772761286,-0.4257792915650722
0.94,-0.036812455268467874,0.023527078329628626,-0.3681245526846787
0.95,-0.030901699437494764,0.01961477393196125,-0.3090169943749476
0.96,-0.024868988716485536,0.01569762988232838,-0.24868988716485535
0.97,-0.01873813145857247,0.01177661267741067,-0.18738131458572468
0.98,-0.012533323356430466,0.007852689769532099,-0.12533323356430465
0.99,-0.006279051952931327,0.003926829327955162,-0.06279051952931326
1.00,-2.4492935982947065e-17,1.5308084989341915e-17,-2.4492935982947064e-16
1.01,0.006279051952931278,-0.0039268293279551315,0.06279051952931278
1.02,0.012533323356430419,-0.00785268976953207,0.12533323356430418
1.03,0.01873813145857242,-0.011776612677410639,0.1873813145857242
1.04,0.02486898871648549,-0.01569762988232835,0.24868988716485488
1.05,0.03090169943749472,-0.01961477393196122,0.3090169943749472
1.06,0.03681245526846782,-0.023527078329628595,0.3681245526846782
1.07,0.04257792915650726,-0.02743357777276131,0.42577929156507255
1.08,0.04817536741017157,-0.03133330839107609,0.48175367410171566
1.09,0.05358267949789967,-0.03522530798439567,0.5358267949789967
1.10,0.05877852522924736,-0.03910861626005776,0.5877852522924736
1.11,0.06374239897486898,-0.0429822750698524,0.6374239897486899
1.12,0.06845471059286894,-0.046845328646431206,0.6845471059286893
1.13,0.07289686274214106,-0.05069682383912804,0.7289686274214106
1.14,0.07705132427757888,-0.054535810349135586,0.7705132427757887
1.15,0.08090169943749469,-0.05836134096397628,0.8090169943749468
1.16,0.08443279255020147,-0.06217247179121366,0.8443279255020147
1.17,0.08763066800438632,-0.06596826249134316,0.8763066800438631
1.18,0.09048270524660194,-0.06974777650980729,0.9048270524660194
1.19,0.09297764858882512,-0.07351008130807594,0.9297764858882511
1.20,0.09510565162951536,-0.07725424859373684,0.9510565162951535
1.21,0.09685831611286311,-0.08097935454953732,0.968583161128631
1.22,0.09822872507286887,-0.08468448006132284,0.9822872507286886
1.23,0.09921147013144778,-0.08836871094481426,0.9921147013144778
1.24,0.09980267284282716,-0.0920311381711695,0.9980267284282716
1.25,0.1,-0.09567085809127243,1.0
1.26,0.09980267284282716,-0.09928697265869511,0.9980267284282716
1.27,0.0992114701314478,-0.10287858965127719,0.9921147013144779
1.28,0.09822872507286887,-0.10644482289126818,0.9822872507286886
1.29,0.09685831611286311,-0.10998479246397878,0.9685831611286311
1.30,0.09510565162951537,-0.11349762493488667,0.9510565162951536
1.31,0.09297764858882518,-0.11698245356514331,0.9297764858882517
1.32,0.09048270524660193,-0.12043841852542886,0.9048270524660192
1.33,0.08763066800438635,-0.1238646671081019,0.8763066800438634
1.34,0.08443279255020152,-0.12726035393759283,0.8443279255020151
1.35,0.08090169943749477,-0.1306246411789872,0.8090169943749477
1.36,0.07705132427757887,-0.13395669874474922,0.7705132427757886
1.37,0.0728968627421411,-0.13725570449953298,0.728968627421411
1.38,0.06845471059286898,-0.1405208444630326,0.6845471059286897
1.39,0.06374239897486911,-0.14375131301081956,0.6374239897486911
1.40,0.05877852522924734,-0.14694631307311826,0.5877852522924734
1.41,0.05358267949789972,-0.15010505633147098,0.5358267949789972
1.42,0.04817536741017162,-0.15322676341324407,0.4817536741017162
1.43,0.0425779291565074,-0.15631066408392622,0.42577929156507394
1.44,0.0368124552684678,-0.15935599743717244,0.368124552684678
1.45,0.03090169943749478,-0.1623620120825459,0.3090169943749478
1.46,0.02486898871648555,-0.16532796633091293,0.2486898871648555
1.47,0.01873813145857257,-0.16825312837744327,0.18738131458572568
1.48,0.012533323356430391,-0.17113677648217218,0.1253332335643039
1.49,0.006279051952931339,-0.17397819914807858,0.06279051952931339
1.50,3.6739403974420595e-17,-0.17677669529663687,3.6739403974420594e-16
1.51,-0.006279051952931266,-0.17953157444079718,-0.06279051952931265
1.52,-0.012533323356430318,-0.18224215685535283,-0.12533323356430318
1.53,-0.018738131458572498,-0.18490777374465245,-0.18738131458572496
1.54,-0.024868988716485477,-0.1875277674076149,-0.24868988716485477
1.55,-0.03090169943749471,-0.19010149140000773,-0.30901699437494706
1.56,-0.03681245526846773,-0.19262831069394729,-0.36812455268467725
1.57,-0.04257792915650733,-0.19510760183458245,-0.42577929156507327
1.58,-0.04817536741017156,-0.1975387530939226,-0.48175367410171555
1.59,-0.05358267949789966,-0.19992116462177265,-0.5358267949789965
1.60,-0.058778525229247286,-0.20225424859373684,-0.5877852522924728
1.61,-0.06374239897486905,-0.2045374293562559,-0.6374239897486905
1.62,-0.06845471059286892,-0.20677014356864049,-0.6845471059286892
1.63,-0.07289686274214106,-0.2089518403420675,-0.7289686274214106
1.64,-0.07705132427757881,-0.2110819813755037,-0.770513242775788
1.65,-0.08090169943749473,-0.21316004108852304,-0.8090169943749472
1.66,-0.08443279255020147,-0.21518550675098588,-0.8443279255020146
1.67,-0.0876306680043863,-0.21715787860954777,-0.876306680043863
1.68,-0.0904827052466019,-0.21907667001096584,-0.9048270524660189
1.69,-0.09297764858882514,-0.22094140752217337,-0.9297764858882513
1.70,-0.09510565162951534,-0.22275163104709195,-0.9510565162951534
1.71,-0.09685831611286311,-0.22450689394015388,-0.968583161128631
1.72,-0.09822872507286885,-0.22620676311650484,-0.9822872507286885
1.73,-0.0992114701314478,-0.22785081915886132,-0.9921147013144779
1.74,-0.09980267284282716,-0.22943865642099529,-0.9980267284282716
1.75,-0.1,-0.23096988312782168,-1.0
1.76,-0.09980267284282716,-0.23244412147206284,-0.9980267284282716
1.77,-0.09921147013144781,-0.23386100770746682,-0.992114701314478
1.78,-0.09822872507286887,-0.23522019223855636,-0.9822872507286886
1.79,-0.09685831611286312,-0.23652133970688632,-0.9685831611286312
1.80,-0.09510565162951538,-0.23776412907378838,-0.9510565162951538
1.81,-0.09297764858882518,-0.23894825369958253,-0.9297764858882517
1.82,-0.09048270524660193,-0.24007342141923577,-0.9048270524660192
1.83,-0.08763066800438635,-0.24113935461444952,-0.8763066800438635
1.84,-0.08443279255020152,-0.24214579028215777,-0.8443279255020151
1.85,-0.08090169943749477,-0.24309248009941914,-0.8090169943749477
1.86,-0.07705132427757887,-0.24397919048468686,-0.7705132427757886
1.87,-0.07289686274214112,-0.24480570265544147,-0.7289686274214111
1.88,-0.06845471059286899,-0.24557181268217215,-0.6845471059286898
1.89,-0.06374239897486912,-0.24627733153869347,-0.6374239897486912
1.90,-0.05877852522924735,-0.24692208514878441,-0.5877852522924735
1.91,-0.053582679497899736,-0.24750591442913938,-0.5358267949789973
1.92,-0.048175367410171636,-0.24802867532861944,-0.4817536741017163
1.93,-0.042577929156507405,-0.2484902388637949,-0.42577929156507405
1.94,-0.03681245526846781,-0.24889049115077,-0.3681245526846781
1.95,-0.03090169943749479,-0.249229333433282,-0.3090169943749479
1.96,-0.02486898871648556,-0.2495066821070679,-0.2486898871648556
1.97,-0.01873813145857258,-0.24972246874049248,-0.1873813145857258
1.98,-0.012533323356430402,-0.2498766400914329,-0.125333233564304
1.99,-0.006279051952931352,-0.24996915812041515,-0.06279051952931351
2.00,-4.898587196589413e-17,-0.25,-4.898587196589413e-16
2.01,0.006279051952931075,-0.24996915812041515,0.06279051952931075
2.02,0.012533323356430304,-0.2498766400914329,0.12533323356430304
2.03,0.01873813145857231,-0.2497224687404925,0.1873813145857231
2.04,0.024868988716485466,-0.2495066821070679,0.24868988716485466
2.05,0.030901699437494524,-0.24922933343328202,0.30901699437494523
2.06,0.036812455268467714,-0.24889049115077,0.36812455268467714
2.07,0.042577929156507155,-0.24849023886379493,0.42577929156507155
2.08,0.048175367410171546,-0.24802867532861947,0.48175367410171543
2.09,0.0535826794978995,-0.2475059144291394,0.535826794978995
2.10,0.05877852522924727,-0.24692208514878444,0.5877852522924727
2.11,0.06374239897486891,-0.2462773315386935,0.6374239897486891
2.12,0.06845471059286891,-0.24557181268217215,0.6845471059286891
2.13,0.07289686274214105,-0.24480570265544147,0.7289686274214104
2.14,0.07705132427757892,-0.24397919048468686,0.7705132427757891
2.15,0.08090169943749471,-0.24309248009941917,0.8090169943749471
2.16,0.08443279255020156,-0.24214579028215777,0.8443279255020155
2.17,0.0876306680043863,-0.24113935461444955,0.876306680043863
2.18,0.09048270524660196,-0.24007342141923577,0.9048270524660196
2.19,0.09297764858882514,-0.23894825369958253,0.9297764858882513
2.20,0.0951056516295154,-0.23776412907378838,0.951056516295154
2.21,0.0968583161128631,-0.23652133970688635,0.9685831611286309
2.22,0.0982287250728689,-0.23522019223855636,0.9822872507286888
2.23,0.0992114701314478,-0.23386100770746682,0.9921147013144779
2.24,0.09980267284282718,-0.2324441214720628,0.9980267284282717
2.25,0.1,-0.2309698831278217,1.0
2.26,0.09980267284282718,-0.22943865642099534,0.9980267284282718
2.27,0.09921147013144781,-0.22785081915886135,0.992114701314478
2.28,0.0982287250728689,-0.22620676311650492,0.9822872507286889
2.29,0.09685831611286312,-0.2245068939401539,0.9685831611286312
2.30,0.09510565162951544,-0.22275163104709203,0.9510565162951543
2.31,0.09297764858882518,-0.2209414075221734,0.9297764858882518
2.32,0.09048270524660201,-0.21907667001096592,0.90482705246602
2.33,0.08763066800438635,-0.2171578786095478,0.8763066800438635
2.34,0.08443279255020163,-0.21518550675098597,0.8443279255020162
2.35,0.08090169943749478,-0.21316004108852307,0.8090169943749478
2.36,0.07705132427757899,-0.2110819813755038,0.7705132427757898
2.37,0.07289686274214112,-0.20895184034206754,0.7289686274214112
2.38,0.06845471059286899,-0.2067701435686405,0.6845471059286898
2.39,0.06374239897486898,-0.20453742935625588,0.6374239897486899
2.40,0.05877852522924736,-0.2022542485937369,0.5877852522924736
2.41,0.05358267949789959,-0.1999211646217726,0.5358267949789959
2.42,0.04817536741017164,-0.19753875309392263,0.48175367410171643
2.43,0.04257792915650726,-0.19510760183458242,0.42577929156507255
2.44,0.03681245526846782,-0.1926283106939473,0.3681245526846782
2.45,0.03090169943749463,-0.19010149140000768,0.3090169943749463
2.46,0.024868988716485574,-0.18752776740761493,0.2486898871648557
2.47,0.018738131458572418,-0.1849077737446524,0.18738131458572418
2.48,0.012533323356430415,-0.1822421568553529,0.12533323356430415
2.49,0.006279051952931186,-0.17953157444079715,0.06279051952931186
2.50,6.123233995736766e-17,-0.17677669529663692,6.123233995736766e-16
2.51,-0.006279051952931065,-0.17397819914807872,-0.06279051952931064
2.52,-0.012533323356430294,-0.17113677648217224,-0.12533323356430293
2.53,-0.018738131458572296,-0.1682531283774434,-0.18738131458572296
2.54,-0.024868988716485452,-0.16532796633091298,-0.24868988716485452
2.55,-0.030901699437494514,-0.16236201208254603,-0.3090169943749451
2.56,-0.036812455268467874,-0.15935599743717238,-0.3681245526846787
2.57,-0.04257792915650699,-0.15631066408392644,-0.42577929156506983
2.58,-0.04817536741017153,-0.15322676341324412,-0.4817536741017153
2.59,-0.053582679497899646,-0.15010505633147103,-0.5358267949789964
2.60,-0.05877852522924726,-0.1469463130731183,-0.5877852522924726
2.61,-0.0637423989748689,-0.1437513130108197,-0.637423989748689
2.62,-0.06845471059286877,-0.14052084446303273,-0.6845471059286877
2.63,-0.07289686274214104,-0.13725570449953303,-0.7289686274214103
2.64,-0.07705132427757902,-0.13395669874474908,-0.7705132427757901
2.65,-0.0809016994374946,-0.13062464117898734,-0.809016994374946
2.66,-0.08443279255020156,-0.12726035393759277,-0.8443279255020155
2.67,-0.08763066800438639,-0.12386466710810186,-0.8763066800438638
2.68,-0.09048270524660196,-0.12043841852542882,-0.9048270524660196
2.69,-0.09297764858882514,-0.11698245356514336,-0.9297764858882513
2.70,-0.09510565162951534,-0.11349762493488673,-0.9510565162951534
2.71,-0.0968583161128631,-0.10998479246397884,-0.9685831611286309
2.72,-0.09822872507286891,-0.10644482289126804,-0.982287250728689
2.73,-0.09921147013144777,-0.10287858965127729,-0.9921147013144777
2.74,-0.09980267284282718,-0.09928697265869507,-0.9980267284282717
2.75,-0.1,-0.09567085809127258,-1.0
2.76,-0.09980267284282718,-0.09203113817116965,-0.9980267284282718
2.77,-0.09921147013144778,-0.08836871094481426,-0.9921147013144778
2.78,-0.09822872507286895,-0.08468448006132305,-0.9822872507286894
2.79,-0.09685831611286312,-0.08097935454953738,-0.9685831611286312
2.80,-0.09510565162951538,-0.07725424859373689,-0.9510565162951538
2.81,-0.09297764858882518,-0.07351008130807606,-0.9297764858882518
2.82,-0.09048270524660201,-0.0697477765098074,-0.9048270524660201
2.83,-0.08763066800438646,-0.06596826249134333,-0.8763066800438645
2.84,-0.08443279255020163,-0.062172471791213824,-0.8443279255020162
2.85,-0.08090169943749469,-0.058361340963976285,-0.8090169943749468
2.86,-0.0770513242775791,-0.05453581034913581,-0.770513242775791
2.87,-0.07289686274214113,-0.050696823839128095,-0.7289686274214113
2.88,-0.06845471059286887,-0.04684532864643116,-0.6845471059286886
2.89,-0.063742398974869,-0.04298227506985241,-0.63742398974869
2.90,-0.05877852522924737,-0.03910861626005776,-0.5877852522924737
2.91,-0.05358267949789976,-0.03522530798439573,-0.5358267949789975
2.92,-0.04817536741017166,-0.03133330839107615,-0.48175367410171654
2.93,-0.042577929156507106,-0.027433577772761206,-0.42577929156507105
2.94,-0.036812455268468,-0.023527078329628713,-0.36812455268468
2.95,-0.030901699437494642,-0.01961477393196117,-0.3090169943749464
2.96,-0.02486898871648541,-0.015697629882328302,-0.2486898871648541
2.97,-0.01873813145857243,-0.011776612677410644,-0.1873813145857243
2.98,-0.012533323356430426,-0.007852689769532075,-0.12533323356430426
2.99,-0.006279051952931375,-0.003926829327955192,-0.06279051952931375
3.00,-7.347880794884119e-17,-4.592425496802574e-17,-7.347880794884119e-16
3.01,0.0062790519529312295,0.0039268293279551,0.06279051952931229
3.02,0.012533323356430282,0.007852689769531983,0.12533323356430282
3.03,0.018738131458572286,0.011776612677410552,0.18738131458572285
3.04,0.02486898871648527,0.015697629882328208,0.24868988716485269
3.05,0.030901699437494504,0.01961477393196108,0.309016994374945
3.06,0.03681245526846786,0.023527078329628623,0.3681245526846786
3.07,0.042577929156506975,0.027433577772761116,0.4257792915650697
3.08,0.048175367410171525,0.03133330839107606,0.4817536741017152
3.09,0.05358267949789963,0.03522530798439564,0.5358267949789963
3.10,0.05877852522924725,0.03910861626005767,0.5877852522924725
3.11,0.06374239897486889,0.04298227506985232,0.6374239897486889
3.12,0.06845471059286877,0.04684532864643107,0.6845471059286876
3.13,0.07289686274214102,0.05069682383912801,0.7289686274214102
3.14,0.07705132427757902,0.054535810349135724,0.7705132427757901
3.15,0.08090169943749459,0.058361340963976195,0.8090169943749459
3.16,0.08443279255020154,0.06217247179121373,0.8443279255020154
3.17,0.08763066800438638,0.06596826249134324,0.8763066800438637
3.18,0.09048270524660196,0.0697477765098073,0.9048270524660195
3.19,0.09297764858882512,0.07351008130807596,0.9297764858882512
3.20,0.09510565162951534,0.07725424859373681,0.9510565162951533
3.21,0.0968583161128631,0.08097935454953728,0.9685831611286309
3.22,0.09822872507286891,0.08468448006132297,0.982287250728689
3.23,0.09921147013144777,0.08836871094481417,0.9921147013144775
3.24,0.09980267284282718,0.09203113817116956,0.9980267284282717
3.25,0.1,0.0956708580912725,1.0
3.26,0.09980267284282718,0.09928697265869499,0.9980267284282718
3.27,0.09921147013144778,0.1028785896512772,0.9921147013144778
3.28,0.09822872507286895,0.10644482289126796,0.9822872507286894
3.29,0.09685831611286312,0.10998479246397876,0.9685831611286312
3.30,0.0951056516295154,0.11349762493488666,0.9510565162951539
3.31,0.09297764858882518,0.11698245356514328,0.9297764858882518
3.32,0.09048270524660201,0.12043841852542873,0.9048270524660201
3.33,0.08763066800438646,0.12386466710810179,0.8763066800438645
3.34,0.08443279255020164,0.12726035393759272,0.8443279255020163
3.35,0.0809016994374947,0.13062464117898726,0.8090169943749469
3.36,0.07705132427757912,0.133956698744749,0.7705132427757911
3.37,0.07289686274214113,0.13725570449953295,0.7289686274214113
3.38,0.06845471059286888,0.14052084446303265,0.6845471059286887
3.39,0.06374239897486901,0.14375131301081961,0.6374239897486901
3.40,0.05877852522924738,0.14694631307311823,0.5877852522924738
3.41,0.05358267949789977,0.15010505633147095,0.5358267949789977
3.42,0.04817536741017167,0.15322676341324404,0.48175367410171666
3.43,0.04257792915650712,0.15631066408392638,0.42577929156507116
3.44,0.03681245526846801,0.15935599743717233,0.3681245526846801
3.45,0.030901699437494656,0.16236201208254597,0.30901699437494656
3.46,0.024868988716485425,0.16532796633091298,0.24868988716485424
3.47,0.018738131458572442,0.16825312837744336,0.1873813145857244
3.48,0.01253332335643044,0.17113677648217215,0.1253332335643044
3.49,0.006279051952931387,0.17397819914807855,0.06279051952931387
3.50,8.572527594031473e-17,0.17677669529663684,8.572527594031472e-16
3.51,-0.006279051952931217,0.17953157444079715,-0.06279051952931217
3.52,-0.012533323356430268,0.1822421568553528,-0.12533323356430268
3.53,-0.018738131458572276,0.18490777374465234,-0.18738131458572274
3.54,-0.024868988716485258,0.1875277674076148,-0.24868988716485257
3.55,-0.03090169943749449,0.19010149140000762,-0.3090169943749449
3.56,-0.036812455268467846,0.19262831069394734,-0.3681245526846785
3.57,-0.04257792915650696,0.1951076018345823,-0.4257792915650696
3.58,-0.04817536741017151,0.19753875309392258,-0.4817536741017151
3.59,-0.053582679497899625,0.19992116462177262,-0.5358267949789962
3.60,-0.05877852522924725,0.20225424859373684,-0.5877852522924725
3.61,-0.06374239897486887,0.20453742935625582,-0.6374239897486887
3.62,-0.06845471059286876,0.2067701435686404,-0.6845471059286875
3.63,-0.07289686274214102,0.20895184034206749,-0.7289686274214102
3.64,-0.077051324277579,0.21108198137550382,-0.77051324277579
3.65,-0.08090169943749459,0.21316004108852296,-0.8090169943749459
3.66,-0.08443279255020154,0.21518550675098594,-0.8443279255020154
3.67,-0.08763066800438638,0.21715787860954783,-0.8763066800438637
3.68,-0.09048270524660196,0.2190766700109659,-0.9048270524660195
3.69,-0.09297764858882512,0.22094140752217334,-0.9297764858882512
3.70,-0.09510565162951534,0.22275163104709195,-0.9510565162951533
3.71,-0.0968583161128631,0.22450689394015388,-0.9685831611286309
3.72,-0.09822872507286891,0.22620676311650492,-0.982287250728689
3.73,-0.09921147013144777,0.22785081915886127,-0.9921147013144775
3.74,-0.09980267284282718,0.2294386564209953,-0.9980267284282717
3.75,-0.1,0.23096988312782163,-1.0
3.76,-0.09980267284282718,0.23244412147206278,-0.9980267284282718
3.77,-0.09921147013144778,0.23386100770746684,-0.9921147013144778
3.78,-0.09822872507286895,0.23522019223855628,-0.9822872507286894
3.79,-0.09685831611286314,0.23652133970688632,-0.9685831611286313
3.80,-0.0951056516295154,0.23776412907378838,-0.9510565162951539
3.81,-0.09297764858882519,0.2389482536995825,-0.9297764858882519
3.82,-0.09048270524660203,0.24007342141923574,-0.9048270524660202
3.83,-0.08763066800438646,0.2411393546144495,-0.8763066800438646
3.84,-0.08443279255020164,0.24214579028215774,-0.8443279255020163
3.85,-0.0809016994374947,0.24309248009941917,-0.8090169943749469
3.86,-0.07705132427757912,0.2439791904846868,-0.7705132427757911
3.87,-0.07289686274214115,0.24480570265544144,-0.7289686274214114
3.88,-0.06845471059286888,0.24557181268217218,-0.6845471059286888
3.89,-0.06374239897486902,0.24627733153869347,-0.6374239897486902
3.90,-0.0587785252292474,0.24692208514878441,-0.5877852522924739
3.91,-0.05358267949789978,0.24750591442913938,-0.5358267949789978
3.92,-0.04817536741017168,0.24802867532861944,-0.48175367410171677
3.93,-0.04257792915650713,0.24849023886379493,-0.42577929156507127
3.94,-0.03681245526846802,0.24889049115077,-0.3681245526846802
3.95,-0.03090169943749467,0.249229333433282,-0.3090169943749467
3.96,-0.024868988716485435,0.2495066821070679,-0.24868988716485435
3.97,-0.018738131458572456,0.2497224687404925,-0.18738131458572455
3.98,-0.012533323356430452,0.2498766400914329,-0.1253332335643045
3.99,-0.0062790519529314,0.24996915812041515,-0.062790519529314
4.00,-9.797174393178826e-17,0.25,-9.797174393178826e-16
4.01,0.006279051952931204,0.24996915812041515,0.06279051952931204
4.02,0.012533323356429905,0.2498766400914329,0.12533323356429904
4.03,0.018738131458572612,0.24972246874049248,0.1873813145857261
4.04,0.024868988716485248,0.2495066821070679,0.24868988716485246
4.05,0.03090169943749448,0.24922933343328202,0.3090169943749448
4.06,0.036812455268467506,0.24889049115077003,0.36812455268467503
4.07,0.04257792915650727,0.24849023886379493,0.4257792915650727
4.08,0.048175367410171505,0.24802867532861947,0.48175367410171505
4.09,0.05358267949789961,0.24750591442913938,0.5358267949789961
4.10,0.05877852522924695,0.24692208514878447,0.5877852522924695
4.11,0.06374239897486915,0.24627733153869347,0.6374239897486914
4.12,0.06845471059286874,0.24557181268217218,0.6845471059286874
4.13,0.07289686274214101,0.24480570265544147,0.7289686274214101
4.14,0.07705132427757877,0.2439791904846869,0.7705132427757877
4.15,0.0809016994374948,0.24309248009941914,0.8090169943749479
4.16,0.08443279255020153,0.24214579028215777,0.8443279255020153
4.17,0.08763066800438636,0.24113935461444952,0.8763066800438636
4.18,0.09048270524660179,0.24007342141923582,0.9048270524660179
4.19,0.09297764858882525,0.23894825369958247,0.9297764858882525
4.20,0.09510565162951534,0.2377641290737884,0.9510565162951533
4.21,0.09685831611286308,0.23652133970688635,0.9685831611286307
4.22,0.09822872507286884,0.2352201922385564,0.9822872507286884
4.23,0.09921147013144781,0.2338610077074668,0.992114701314478
4.24,0.09980267284282718,0.23244412147206284,0.9980267284282717
4.25,0.1,0.23096988312782168,1.0
4.26,0.09980267284282718,0.22943865642099537,0.9980267284282718
4.27,0.09921147013144783,0.2278508191588614,0.9921147013144783
4.28,0.09822872507286888,0.2262067631165049,0.9822872507286887
4.29,0.09685831611286314,0.22450689394015394,0.9685831611286313
4.30,0.0951056516295154,0.222751631047092,0.9510565162951539
4.31,0.09297764858882533,0.2209414075221735,0.9297764858882532
4.32,0.09048270524660189,0.21907667001096584,0.9048270524660188
4.33,0.08763066800438646,0.21715787860954788,0.8763066800438646
4.34,0.08443279255020164,0.215185506750986,0.8443279255020164
4.35,0.08090169943749492,0.21316004108852316,0.8090169943749491
4.36,0.07705132427757891,0.21108198137550377,0.770513242775789
4.37,0.07289686274214116,0.20895184034206757,0.7289686274214116
4.38,0.0684547105928689,0.20677014356864046,0.684547105928689
4.39,0.0637423989748693,0.20453742935625602,0.637423989748693
4.40,0.05877852522924712,0.20225424859373675,0.5877852522924711
4.41,0.05358267949789979,0.1999211646217727,0.5358267949789979
4.42,0.048175367410171685,0.19753875309392266,0.4817536741017168
4.43,0.04257792915650746,0.1951076018345825,0.4257792915650746
4.44,0.0368124552684677,0.19262831069394726,0.368124552684677
4.45,0.03090169943749468,0.1901014914000077,0.3090169943749468
4.46,0.02486898871648545,0.18752776740761487,0.24868988716485446
4.47,0.018738131458572817,0.1849077737446526,0.18738131458572815
4.48,0.01253332335643011,0.18224215685535275,0.1253332335643011
4.49,0.0062790519529314125,0.17953157444079723,0.06279051952931412
4.50,1.1021821192326179e-16,0.17677669529663692,1.102182119232618e-15
4.51,-0.006279051952931192,0.17397819914807866,-0.06279051952931192
4.52,-0.012533323356429893,0.1711367764821724,-0.12533323356429893
4.53,-0.018738131458572598,0.16825312837744327,-0.187381314585726
4.54,-0.024868988716485234,0.1653279663309131,-0.24868988716485232
4.55,-0.03090169943749447,0.16236201208254605,-0.3090169943749447
4.56,-0.03681245526846749,0.15935599743717258,-0.3681245526846749
4.57,-0.042577929156507266,0.1563106640839263,-0.4257792915650726
4.58,-0.0481753674101715,0.15322676341324415,-0.48175367410171493
4.59,-0.053582679497899605,0.15010505633147106,-0.535826794978996
4.60,-0.05877852522924694,0.1469463130731185,-0.5877852522924694
4.61,-0.06374239897486914,0.14375131301081953,-0.6374239897486913
4.62,-0.06845471059286873,0.14052084446303276,-0.6845471059286873
4.63,-0.07289686274214101,0.13725570449953306,-0.72896862742141
4.64,-0.07705132427757877,0.1339566987447493,-0.7705132427757876
4.65,-0.08090169943749478,0.13062464117898717,-0.8090169943749478
4.66,-0.08443279255020153,0.1272603539375928,-0.8443279255020152
4.67,-0.08763066800438636,0.12386466710810189,-0.8763066800438636
4.68,-0.09048270524660179,0.12043841852542904,-0.9048270524660178
4.69,-0.09297764858882525,0.1169824535651432,-0.9297764858882525
4.70,-0.09510565162951533,0.11349762493488676,-0.9510565162951532
4.71,-0.09685831611286308,0.10998479246397887,-0.9685831611286307
4.72,-0.09822872507286884,0.10644482289126826,-0.9822872507286883
4.73,-0.09921147013144781,0.10287858965127712,-0.992114701314478
4.74,-0.09980267284282718,0.0992869726586951,-0.9980267284282717
4.75,-0.1,0.09567085809127261,-1.0
4.76,-0.09980267284282718,0.09203113817116969,-0.9980267284282718
4.77,-0.09921147013144783,0.0883687109448145,-0.9921147013144783
4.78,-0.09822872507286888,0.08468448006132287,-0.9822872507286887
4.79,-0.09685831611286314,0.0809793545495374,-0.9685831611286313
4.80,-0.0951056516295154,0.07725424859373693,-0.951056516295154
4.81,-0.09297764858882533,0.07351008130807629,-0.9297764858882532
4.82,-0.09048270524660189,0.06974777650980721,-0.9048270524660188
4.83,-0.08763066800438647,0.06596826249134335,-0.8763066800438647
4.84,-0.08443279255020165,0.06217247179121385,-0.8443279255020165
4.85,-0.08090169943749492,0.058361340963976535,-0.8090169943749491
4.86,-0.07705132427757891,0.05453581034913563,-0.770513242775789
4.87,-0.07289686274214117,0.05069682383912813,-0.7289686274214117
4.88,-0.06845471059286891,0.046845328646431185,-0.6845471059286891
4.89,-0.06374239897486932,0.04298227506985266,-0.6374239897486931
4.90,-0.058778525229247126,0.03910861626005757,-0.5877852522924712
4.91,-0.0535826794978998,0.035225307984395764,-0.535826794978998
4.92,-0.0481753674101717,0.03133330839107618,-0.48175367410171693
4.93,-0.042577929156507474,0.02743357777276146,-0.4257792915650747
4.94,-0.03681245526846771,0.023527078329628522,-0.3681245526846771
4.95,-0.03090169943749469,0.0196147739319612,-0.3090169943749469
4.96,-0.024868988716485463,0.01569762988232833,-0.2486898871648546
4.97,-0.018738131458572827,0.011776612677410897,-0.18738131458572826
4.98,-0.012533323356430124,0.007852689769531884,-0.12533323356430123
4.99,-0.0062790519529314255,0.0039268293279552235,-0.06279051952931425
5.00,-1.2246467991473532e-16,7.654042494670958e-17,-1.2246467991473533e-15
5.01,0.006279051952931179,-0.00392682932795507,0.06279051952931179
5.02,0.01253332335642988,-0.00785268976953173,0.1253332335642988
5.03,0.018738131458572584,-0.011776612677410744,0.18738131458572585
5.04,0.024868988716485223,-0.015697629882328177,0.2486898871648522
5.05,0.03090169943749446,-0.01961477393196105,0.30901699437494456
5.06,0.036812455268467485,-0.02352707832962837,0.3681245526846748
5.07,0.04257792915650725,-0.027433577772761307,0.4257792915650725
5.08,0.048175367410171484,-0.03133330839107603,0.4817536741017148
5.09,0.05358267949789959,-0.03522530798439561,0.5358267949789959
5.10,0.058778525229246925,-0.03910861626005742,0.5877852522924693
5.11,0.06374239897486886,-0.04298227506985229,0.6374239897486885
5.12,0.06845471059286899,-0.046845328646431254,0.6845471059286898
5.13,0.072896862742141,-0.05069682383912798,0.7289686274214099
5.14,0.07705132427757853,-0.05453581034913526,0.7705132427757853
5.15,0.08090169943749498,-0.0583613409639766,0.8090169943749498
5.16,0.08443279255020153,-0.062172471791213706,0.8443279255020152
5.17,0.08763066800438618,-0.065968262491343,0.8763066800438618
5.18,0.09048270524660193,-0.06974777650980728,0.9048270524660192
5.19,0.09297764858882523,-0.07351008130807615,0.9297764858882523
5.20,0.09510565162951533,-0.07725424859373678,0.9510565162951532
5.21,0.09685831611286316,-0.08097935454953746,0.9685831611286316
5.22,0.09822872507286884,-0.08468448006132273,0.9822872507286883
5.23,0.09921147013144781,-0.08836871094481435,0.992114701314478
5.24,0.09980267284282714,-0.09203113817116933,0.9980267284282713
5.25,0.1,-0.09567085809127247,1.0
5.26,0.09980267284282718,-0.09928697265869496,0.9980267284282718
5.27,0.09921147013144788,-0.10287858965127678,0.9921147013144788
5.28,0.09822872507286882,-0.10644482289126833,0.9822872507286882
5.29,0.09685831611286314,-0.10998479246397873,0.9685831611286313
5.30,0.09510565162951551,-0.11349762493488642,0.9510565162951551
5.31,0.0929776485888252,-0.11698245356514325,0.929776485888252
5.32,0.0904827052466019,-0.1204384185254289,0.9048270524660189
5.33,0.08763066800438647,-0.12386466710810176,0.8763066800438647
5.34,0.08443279255020147,-0.12726035393759286,0.8443279255020146
5.35,0.08090169943749492,-0.13062464117898706,0.8090169943749492
5.36,0.07705132427757892,-0.13395669874474916,0.7705132427757891
5.37,0.07289686274214141,-0.13725570449953273,0.7289686274214141
5.38,0.06845471059286892,-0.14052084446303262,0.6845471059286892
5.39,0.06374239897486932,-0.14375131301081942,0.6374239897486932
5.40,0.058778525229247425,-0.14694631307311823,0.5877852522924742
5.41,0.0535826794978995,-0.15010505633147112,0.535826794978995
5.42,0.048175367410171706,-0.153226763413244,0.48175367410171704
5.43,0.04257792915650781,-0.156310664083926,0.42577929156507804
5.44,0.036812455268467395,-0.15935599743717263,0.3681245526846739
5.45,0.0309016994374947,-0.16236201208254594,0.309016994374947
5.46,0.024868988716485817,-0.16532796633091282,0.24868988716485815
5.47,0.01873813145857249,-0.16825312837744333,0.1873813145857249
5.48,0.012533323356430134,-0.1711367764821723,0.12533323356430134
5.49,0.006279051952931436,-0.17397819914807855,0.06279051952931436
5.50,4.899825157862589e-16,-0.17677669529663667,4.899825157862589e-15
5.51,-0.006279051952931169,-0.17953157444079712,-0.06279051952931168
5.52,-0.012533323356429869,-0.18224215685535264,-0.12533323356429868
5.53,-0.018738131458572223,-0.1849077737446523,-0.18738131458572224
5.54,-0.024868988716485557,-0.18752776740761493,-0.24868988716485554
5.55,-0.030901699437494448,-0.1901014914000076,-0.30901699437494445
5.56,-0.036812455268467145,-0.19262831069394704,-0.3681245526846714
5.57,-0.042577929156507564,-0.19510760183458256,-0.4257792915650756
5.58,-0.04817536741017148,-0.19753875309392258,-0.4817536741017147
5.59,-0.05358267949789928,-0.19992116462177245,-0.5358267949789928
5.60,-0.0587785252292472,-0.2022542485937368,-0.587785252292472
5.61,-0.06374239897486911,-0.20453742935625593,-0.6374239897486911
5.62,-0.06845471059286871,-0.20677014356864037,-0.6845471059286872
5.63,-0.07289686274214123,-0.2089518403420676,-0.7289686274214123
5.64,-0.07705132427757876,-0.21108198137550369,-0.7705132427757875
5.65,-0.08090169943749477,-0.21316004108852307,-0.8090169943749477
5.66,-0.08443279255020132,-0.2151855067509858,-0.8443279255020132
5.67,-0.08763066800438635,-0.2171578786095478,-0.8763066800438635
5.68,-0.09048270524660178,-0.21907667001096576,-0.9048270524660177
5.69,-0.09297764858882511,-0.22094140752217334,-0.929776485888251
5.70,-0.09510565162951543,-0.22275163104709203,-0.9510565162951542
5.71,-0.09685831611286307,-0.22450689394015386,-0.9685831611286306
5.72,-0.09822872507286877,-0.22620676311650473,-0.9822872507286876
5.73,-0.09921147013144785,-0.22785081915886143,-0.9921147013144784
5.74,-0.09980267284282716,-0.2294386564209953,-0.9980267284282716
5.75,-0.1,-0.2309698831278216,-1.0
5.76,-0.09980267284282716,-0.23244412147206286,-0.9980267284282716
5.77,-0.09921147013144783,-0.23386100770746673,-0.9921147013144783
5.78,-0.0982287250728689,-0.23522019223855636,-0.9822872507286888
5.79,-0.09685831611286323,-0.23652133970688624,-0.9685831611286323
5.80,-0.0951056516295154,-0.23776412907378836,-0.951056516295154
5.81,-0.09297764858882535,-0.23894825369958245,-0.9297764858882533
5.82,-0.09048270524660205,-0.24007342141923574,-0.9048270524660205
5.83,-0.0876306680043863,-0.24113935461444955,-0.876306680043863
5.84,-0.08443279255020167,-0.24214579028215774,-0.8443279255020166
5.85,-0.08090169943749514,-0.24309248009941906,-0.8090169943749514
5.86,-0.0770513242775787,-0.2439791904846869,-0.7705132427757869
5.87,-0.07289686274214117,-0.24480570265544144,-0.7289686274214118
5.88,-0.06845471059286919,-0.24557181268217212,-0.6845471059286918
5.89,-0.06374239897486905,-0.24627733153869347,-0.6374239897486905
5.90,-0.05877852522924715,-0.24692208514878444,-0.5877852522924715
5.91,-0.05358267949789981,-0.24750591442913938,-0.5358267949789981
5.92,-0.04817536741017141,-0.24802867532861947,-0.48175367410171405
5.93,-0.042577929156507495,-0.2484902388637949,-0.42577929156507494
5.94,-0.036812455268467735,-0.24889049115077,-0.3681245526846773
5.95,-0.030901699437495052,-0.249229333433282,-0.3090169943749505
5.96,-0.024868988716485484,-0.2495066821070679,-0.24868988716485482
5.97,-0.01873813145857285,-0.24972246874049248,-0.18738131458572851
5.98,-0.012533323356430499,-0.2498766400914329,-0.12533323356430498
5.99,-0.006279051952931095,-0.24996915812041515,-0.06279051952931095
6.00,-1.4695761589768238e-16,-0.25,-1.4695761589768238e-15
6.01,0.006279051952930801,-0.24996915812041515,0.062790519529308
6.02,0.012533323356430207,-0.2498766400914329,0.12533323356430207
6.03,0.018738131458572563,-0.2497224687404925,0.18738131458572563
6.04,0.0248689887164852,-0.2495066821070679,0.248689887164852
6.05,0.030901699437494774,-0.249229333433282,0.30901699437494773
6.06,0.03681245526846746,-0.24889049115077003,0.3681245526846746
6.07,0.04257792915650723,-0.24849023886379493,0.42577929156507227
6.08,0.04817536741017115,-0.2480286753286195,0.4817536741017115
6.09,0.05358267949789957,-0.2475059144291394,0.5358267949789957
6.10,0.058778525229246904,-0.24692208514878447,0.587785252292469
6.11,0.06374239897486883,-0.2462773315386935,0.6374239897486883
6.12,0.06845471059286896,-0.24557181268217215,0.6845471059286896
6.13,0.07289686274214098,-0.24480570265544147,0.7289686274214098
6.14,0.07705132427757852,-0.24397919048468694,0.7705132427757851
6.15,0.08090169943749498,-0.24309248009941908,0.8090169943749497
6.16,0.08443279255020152,-0.24214579028215777,0.8443279255020151
6.17,0.08763066800438618,-0.2411393546144496,0.8763066800438617
6.18,0.09048270524660192,-0.2400734214192358,0.9048270524660191
6.19,0.09297764858882523,-0.23894825369958247,0.9297764858882522
6.20,0.09510565162951531,-0.2377641290737884,0.9510565162951531
6.21,0.09685831611286316,-0.2365213397068863,0.9685831611286315
6.22,0.09822872507286884,-0.23522019223855642,0.9822872507286883
6.23,0.09921147013144781,-0.23386100770746682,0.992114701314478
6.24,0.09980267284282714,-0.23244412147206292,0.9980267284282713
6.25,0.1,-0.23096988312782168,1.0
6.26,0.09980267284282718,-0.22943865642099537,0.9980267284282718
6.27,0.09921147013144788,-0.22785081915886152,0.9921147013144788
6.28,0.09822872507286882,-0.2262067631165048,0.9822872507286882
6.29,0.09685831611286315,-0.22450689394015394,0.9685831611286314
6.30,0.09510565162951552,-0.2227516310470921,0.9510565162951552
6.31,0.09297764858882522,-0.22094140752217342,0.9297764858882521
6.32,0.0904827052466019,-0.21907667001096587,0.904827052466019
6.33,0.08763066800438649,-0.21715787860954788,0.8763066800438648
6.34,0.08443279255020147,-0.21518550675098588,0.8443279255020147
6.35,0.08090169943749494,-0.21316004108852316,0.8090169943749493
6.36,0.07705132427757894,-0.21108198137550377,0.7705132427757894
6.37,0.07289686274214144,-0.2089518403420677,0.7289686274214143
6.38,0.06845471059286894,-0.20677014356864049,0.6845471059286893
6.39,0.06374239897486934,-0.20453742935625602,0.6374239897486934
6.40,0.05877852522924744,-0.20225424859373692,0.5877852522924744
6.41,0.05358267949789952,-0.19992116462177256,0.5358267949789952
6.42,0.04817536741017173,-0.1975387530939227,0.48175367410171727
6.43,0.04257792915650783,-0.19510760183458267,0.42577929156507827
6.44,0.036812455268467416,-0.19262831069394715,0.36812455268467414
6.45,0.030901699437494726,-0.19010149140000773,0.30901699437494723
6.46,0.024868988716485838,-0.18752776740761504,0.24868988716485838
6.47,0.018738131458572515,-0.18490777374465245,0.18738131458572513
6.48,0.01253332335643016,-0.18224215685535278,0.1253332335643016
6.49,0.006279051952931461,-0.17953157444079726,0.06279051952931461
6.50,-1.9606728399089418e-16,-0.17677669529663678,-1.9606728399089416e-15
6.51,-0.006279051952931144,-0.17397819914807866,-0.06279051952931143
6.52,-0.012533323356429843,-0.17113677648217243,-0.12533323356429843
6.53,-0.018738131458572203,-0.16825312837744347,-0.18738131458572202
6.54,-0.024868988716485532,-0.16532796633091296,-0.2486898871648553
6.55,-0.030901699437494424,-0.16236201208254608,-0.30901699437494423
6.56,-0.036812455268467124,-0.15935599743717277,-0.3681245526846712
6.57,-0.042577929156507544,-0.15631066408392616,-0.4257792915650754
6.58,-0.04817536741017145,-0.15322676341324418,-0.4817536741017145
6.59,-0.05358267949789926,-0.15010505633147125,-0.5358267949789925
6.60,-0.05877852522924718,-0.14694631307311837,-0.5877852522924718
6.61,-0.0637423989748691,-0.14375131301081956,-0.637423989748691
6.62,-0.0684547105928687,-0.14052084446303276,-0.684547105928687
6.63,-0.07289686274214122,-0.1372557044995329,-0.7289686274214121
6.64,-0.07705132427757873,-0.1339566987447493,-0.7705132427757873
6.65,-0.08090169943749476,-0.1306246411789872,-0.8090169943749476
6.66,-0.08443279255020131,-0.12726035393759302,-0.8443279255020131
6.67,-0.08763066800438635,-0.12386466710810191,-0.8763066800438634
6.68,-0.09048270524660176,-0.12043841852542907,-0.9048270524660176
6.69,-0.0929776485888251,-0.11698245356514342,-0.9297764858882509
6.70,-0.09510565162951543,-0.11349762493488659,-0.9510565162951542
6.71,-0.09685831611286307,-0.1099847924639789,-0.9685831611286306
6.72,-0.09822872507286877,-0.1064448228912685,-0.9822872507286876
6.73,-0.09921147013144785,-0.10287858965127694,-0.9921147013144784
6.74,-0.09980267284282716,-0.09928697265869513,-0.9980267284282716
6.75,-0.1,-0.09567085809127264,-1.0
6.76,-0.09980267284282716,-0.09203113817116951,-0.9980267284282716
6.77,-0.09921147013144783,-0.08836871094481452,-0.9921147013144783
6.78,-0.0982287250728689,-0.0846844800613229,-0.9822872507286888
6.79,-0.09685831611286323,-0.08097935454953764,-0.9685831611286323
6.80,-0.09510565162951541,-0.07725424859373696,-0.9510565162951541
6.81,-0.09297764858882535,-0.07351008130807632,-0.9297764858882535
6.82,-0.09048270524660207,-0.06974777650980746,-0.9048270524660206
6.83,-0.08763066800438632,-0.06596826249134317,-0.8763066800438631
6.84,-0.08443279255020168,-0.062172471791213886,-0.8443279255020167
6.85,-0.08090169943749516,-0.05836134096397678,-0.8090169943749516
6.86,-0.07705132427757871,-0.05453581034913544,-0.7705132427757871
6.87,-0.0728968627421412,-0.05069682383912816,-0.728968627421412
6.88,-0.0684547105928692,-0.046845328646431435,-0.684547105928692
6.89,-0.06374239897486908,-0.04298227506985247,-0.6374239897486907
6.90,-0.05877852522924716,-0.0391086162600576,-0.5877852522924716
6.91,-0.053582679497899834,-0.03522530798439579,-0.5358267949789983
6.92,-0.04817536741017143,-0.03133330839107599,-0.48175367410171427
6.93,-0.042577929156507516,-0.027433577772761487,-0.42577929156507516
6.94,-0.036812455268467756,-0.023527078329628553,-0.36812455268467753
6.95,-0.030901699437495073,-0.019614773931961454,-0.3090169943749507
6.96,-0.024868988716485508,-0.01569762988232836,-0.24868988716485507
6.97,-0.018738131458572876,-0.011776612677410927,-0.18738131458572876
6.98,-0.012533323356430523,-0.007852689769532135,-0.12533323356430523
6.99,-0.0062790519529311185,-0.003926829327955032,-0.06279051952931118
7.00,-1.7145055188062946e-16,-1.071565949253934e-16,-1.7145055188062944e-15
7.01,0.006279051952930777,0.0039268293279548176,0.06279051952930777
7.02,0.012533323356430185,0.007852689769531922,0.12533323356430184
7.03,0.01873813145857254,0.011776612677410713,0.18738131458572538
7.04,0.024868988716485175,0.01569762988232815,0.24868988716485174
7.05,0.030901699437494747,0.01961477393196124,0.30901699437494745
7.06,0.03681245526846744,0.02352707832962834,0.36812455268467437
7.07,0.04257792915650721,0.027433577772761276,0.42577929156507205
7.08,0.04817536741017113,0.03133330839107578,0.48175367410171127
7.09,0.05358267949789955,0.03522530798439558,0.5358267949789954
7.10,0.058778525229246883,0.03910861626005739,0.5877852522924688
7.11,0.06374239897486882,0.042982275069852256,0.6374239897486881
7.12,0.06845471059286895,0.04684532864643123,0.6845471059286895
7.13,0.07289686274214095,0.05069682383912795,0.7289686274214096
7.14,0.07705132427757849,0.054535810349135225,0.7705132427757849
7.15,0.08090169943749496,0.05836134096397657,0.8090169943749496
7.16,0.08443279255020149,0.06217247179121368,0.8443279255020149
7.17,0.08763066800438617,0.06596826249134297,0.8763066800438616
7.18,0.09048270524660192,0.06974777650980725,0.9048270524660191
7.19,0.09297764858882523,0.07351008130807611,0.9297764858882522
7.20,0.0951056516295153,0.07725424859373675,0.951056516295153
7.21,0.09685831611286316,0.08097935454953743,0.9685831611286315
7.22,0.09822872507286882,0.0846844800613227,0.9822872507286882
7.23,0.0992114701314478,0.08836871094481433,0.9921147013144779
7.24,0.09980267284282714,0.0920311381711693,0.9980267284282713
7.25,0.1,0.09567085809127245,1.0
7.26,0.09980267284282718,0.09928697265869493,0.9980267284282718
7.27,0.09921147013144788,0.10287858965127675,0.9921147013144788
7.28,0.09822872507286882,0.1064448228912683,0.9822872507286882
7.29,0.09685831611286316,0.1099847924639787,0.9685831611286315
7.30,0.09510565162951552,0.1134976249348864,0.9510565162951552
7.31,0.09297764858882523,0.11698245356514322,0.9297764858882522
7.32,0.09048270524660192,0.12043841852542887,0.9048270524660191
7.33,0.0876306680043865,0.12386466710810173,0.8763066800438649
7.34,0.08443279255020149,0.12726035393759283,0.8443279255020149
7.35,0.08090169943749496,0.13062464117898703,0.8090169943749496
7.36,0.07705132427757895,0.13395669874474914,0.7705132427757895
7.37,0.07289686274214145,0.1372557044995327,0.7289686274214144
7.38,0.06845471059286895,0.1405208444630326,0.6845471059286895
7.39,0.06374239897486936,0.1437513130108194,0.6374239897486935
7.40,0.05877852522924746,0.1469463130731182,0.5877852522924746
7.41,0.05358267949789955,0.1501050563314711,0.5358267949789954
7.42,0.048175367410171754,0.153226763413244,0.4817536741017175
7.43,0.04257792915650785,0.15631066408392597,0.4257792915650785
7.44,0.03681245526846744,0.1593559974371726,0.36812455268467437
7.45,0.030901699437494747,0.16236201208254591,0.30901699437494745
7.46,0.024868988716485865,0.1653279663309128,0.24868988716485863
7.47,0.01873813145857254,0.1682531283774433,0.18738131458572538
7.48,0.012533323356430185,0.1711367764821723,0.12533323356430184
7.49,0.006279051952931486,0.17397819914807852,0.06279051952931486
7.50,5.389683877521531e-16,0.17677669529663664,5.3896838775215305e-15
7.51,-0.0062790519529311185,0.17953157444079712,-0.06279051952931118
7.52,-0.012533323356429819,0.1822421568553526,-0.12533323356429818
7.53,-0.01873813145857218,0.1849077737446523,-0.18738131458572177
7.54,-0.024868988716485508,0.1875277674076149,-0.24868988716485507
7.55,-0.030901699437494396,0.1901014914000076,-0.30901699437494395
7.56,-0.0368124552684671,0.192628310693947,-0.3681245526846709
7.57,-0.042577929156507516,0.19510760183458253,-0.42577929156507516
7.58,-0.04817536741017143,0.19753875309392255,-0.48175367410171427
7.59,-0.05358267949789924,0.19992116462177245,-0.5358267949789923
7.60,-0.05877852522924716,0.20225424859373678,-0.5877852522924716
7.61,-0.06374239897486908,0.2045374293562559,-0.6374239897486907
7.62,-0.06845471059286869,0.20677014356864037,-0.6845471059286868
7.63,-0.0728968627421412,0.2089518403420676,-0.728968627421412
7.64,-0.07705132427757871,0.21108198137550366,-0.7705132427757871
7.65,-0.08090169943749474,0.21316004108852304,-0.8090169943749473
7.66,-0.08443279255020131,0.21518550675098577,-0.844327925502013
7.67,-0.08763066800438633,0.2171578786095478,-0.8763066800438633
7.68,-0.09048270524660175,0.21907667001096576,-0.9048270524660175
7.69,-0.09297764858882508,0.2209414075221733,-0.9297764858882508
7.70,-0.09510565162951541,0.222751631047092,-0.9510565162951541
7.71,-0.09685831611286305,0.22450689394015386,-0.9685831611286305
7.72,-0.09822872507286876,0.22620676311650473,-0.9822872507286875
7.73,-0.09921147013144783,0.2278508191588614,-0.9921147013144783
7.74,-0.09980267284282716,0.22943865642099529,-0.9980267284282716
7.75,-0.1,0.2309698831278216,-1.0
7.76,-0.09980267284282716,0.23244412147206284,-0.9980267284282716
7.77,-0.09921147013144785,0.23386100770746673,-0.9921147013144784
7.78,-0.0982287250728689,0.23522019223855634,-0.9822872507286889
7.79,-0.09685831611286325,0.2365213397068862,-0.9685831611286324
7.80,-0.09510565162951543,0.23776412907378836,-0.9510565162951542
7.81,-0.09297764858882536,0.23894825369958242,-0.9297764858882536
7.82,-0.09048270524660207,0.2400734214192357,-0.9048270524660207
7.83,-0.08763066800438635,0.24113935461444952,-0.8763066800438634
7.84,-0.0844327925502017,0.24214579028215774,-0.8443279255020169
7.85,-0.08090169943749517,0.24309248009941906,-0.8090169943749517
7.86,-0.07705132427757873,0.2439791904846869,-0.7705132427757873
7.87,-0.07289686274214122,0.24480570265544144,-0.7289686274214121
7.88,-0.06845471059286921,0.24557181268217212,-0.6845471059286922
7.89,-0.0637423989748691,0.24627733153869347,-0.637423989748691
7.90,-0.05877852522924718,0.24692208514878444,-0.5877852522924718
7.91,-0.053582679497899854,0.24750591442913938,-0.5358267949789985
7.92,-0.04817536741017145,0.24802867532861947,-0.4817536741017145
7.93,-0.042577929156507544,0.2484902388637949,-0.4257792915650754
7.94,-0.036812455268467784,0.24889049115077,-0.3681245526846778
7.95,-0.030901699437495097,0.24922933343328196,-0.30901699437495095
7.96,-0.024868988716485532,0.2495066821070679,-0.2486898871648553
7.97,-0.0187381314585729,0.24972246874049248,-0.187381314585729
7.98,-0.012533323356430549,0.2498766400914329,-0.12533323356430548
7.99,-0.006279051952931144,0.24996915812041515,-0.06279051952931143
8.00,-1.9594348786357652e-16,0.25,-1.959434878635765e-15
8.01,0.0062790519529307524,0.24996915812041515,0.06279051952930752
8.02,0.01253332335643016,0.2498766400914329,0.1253332335643016
8.03,0.018738131458571818,0.2497224687404925,0.18738131458571816
8.04,0.024868988716484464,0.24950668210706795,0.2486898871648446
8.05,0.030901699437494726,0.249229333433282,0.30901699437494723
8.06,0.036812455268468075,0.24889049115077,0.36812455268468075
8.07,0.04257792915650718,0.24849023886379493,0.4257792915650718
8.08,0.04817536741017111,0.2480286753286195,0.48175367410171105
8.09,0.05358267949789952,0.2475059144291394,0.5358267949789952
8.10,0.05877852522924687,0.2469220851487845,0.5877852522924687
8.11,0.06374239897486879,0.2462773315386935,0.6374239897486879
8.12,0.06845471059286841,0.24557181268217224,0.6845471059286841
8.13,0.07289686274214144,0.24480570265544138,0.7289686274214143
8.14,0.07705132427757894,0.24397919048468686,0.7705132427757894
8.15,0.08090169943749494,0.2430924800994191,0.8090169943749493
8.16,0.08443279255020147,0.2421457902821578,0.8443279255020147
8.17,0.08763066800438615,0.2411393546144496,0.8763066800438615
8.18,0.0904827052466019,0.2400734214192358,0.904827052466019
8.19,0.09297764858882496,0.2389482536995826,0.9297764858882495
8.20,0.09510565162951508,0.23776412907378858,0.9510565162951508
8.21,0.09685831611286315,0.2365213397068863,0.9685831611286314
8.22,0.09822872507286895,0.23522019223855628,0.9822872507286895
8.23,0.0992114701314478,0.23386100770746682,0.9921147013144779
8.24,0.09980267284282714,0.23244412147206292,0.9980267284282713
8.25,0.1,0.23096988312782168,1.0
8.26,0.09980267284282718,0.2294386564209954,0.9980267284282718
8.27,0.09921147013144789,0.22785081915886152,0.9921147013144789
8.28,0.09822872507286896,0.226206763116505,0.9822872507286896
8.29,0.09685831611286333,0.22450689394015416,0.9685831611286333
8.30,0.09510565162951531,0.22275163104709192,0.9510565162951531
8.31,0.09297764858882523,0.22094140752217342,0.9297764858882522
8.32,0.09048270524660192,0.21907667001096587,0.9048270524660191
8.33,0.08763066800438651,0.2171578786095479,0.8763066800438651
8.34,0.08443279255020152,0.2151855067509859,0.8443279255020151
8.35,0.08090169943749498,0.21316004108852318,0.8090169943749497
8.36,0.07705132427757942,0.21108198137550402,0.7705132427757941
8.37,0.07289686274214147,0.2089518403420677,0.7289686274214147
8.38,0.06845471059286845,0.20677014356864026,0.6845471059286845
8.39,0.06374239897486883,0.2045374293562558,0.6374239897486883
8.40,0.05877852522924748,0.20225424859373692,0.5877852522924748
8.41,0.05358267949789957,0.1999211646217726,0.5358267949789957
8.42,0.048175367410171775,0.1975387530939227,0.4817536741017177
8.43,0.04257792915650788,0.1951076018345827,0.4257792915650787
8.44,0.036812455268468124,0.19262831069394745,0.3681245526846812
8.45,0.030901699437495447,0.19010149140000804,0.30901699437495445
8.46,0.0248689887164852,0.18752776740761476,0.24868988716485196
8.47,0.018738131458572563,0.18490777374465248,0.18738131458572563
8.48,0.012533323356430207,0.18224215685535278,0.12533323356430207
8.49,0.00627905195293151,0.1795315744407973,0.0627905195293151
8.50,-1.4708141202500006e-16,0.1767766952966368,-1.4708141202500005e-15
8.51,-0.006279051952931095,0.1739781991480787,-0.06279051952931095
8.52,-0.012533323356429796,0.17113677648217246,-0.12533323356429796
8.53,-0.018738131458572154,0.16825312837744347,-0.18738131458572152
8.54,-0.024868988716484797,0.1653279663309133,-0.24868988716484794
8.55,-0.030901699437495052,0.16236201208254575,-0.3090169943749505
8.56,-0.036812455268467735,0.15935599743717246,-0.3681245526846773
8.57,-0.042577929156507495,0.15631066408392616,-0.42577929156507494
8.58,-0.04817536741017141,0.1532267634132442,-0.48175367410171405
8.59,-0.053582679497899216,0.15010505633147128,-0.5358267949789921
8.60,-0.05877852522924715,0.1469463130731184,-0.5877852522924715
8.61,-0.06374239897486851,0.14375131301081995,-0.6374239897486851
8.62,-0.06845471059286815,0.14052084446303317,-0.6845471059286814
8.63,-0.07289686274214117,0.13725570449953292,-0.7289686274214118
8.64,-0.07705132427757916,0.13395669874474897,-0.7705132427757915
8.65,-0.08090169943749473,0.13062464117898723,-0.8090169943749472
8.66,-0.0844327925502013,0.12726035393759305,-0.8443279255020129
8.67,-0.0876306680043863,0.12386466710810194,-0.876306680043863
8.68,-0.09048270524660175,0.1204384185254291,-0.9048270524660175
8.69,-0.09297764858882508,0.11698245356514345,-0.9297764858882508
8.70,-0.09510565162951519,0.11349762493488702,-0.9510565162951519
8.71,-0.09685831611286323,0.10998479246397852,-0.9685831611286323
8.72,-0.0982287250728689,0.10644482289126812,-0.9822872507286888
8.73,-0.09921147013144783,0.10287858965127697,-0.9921147013144783
8.74,-0.09980267284282716,0.09928697265869516,-0.9980267284282716
8.75,-0.1,0.09567085809127267,-1.0
8.76,-0.09980267284282716,0.09203113817116954,-0.9980267284282716
8.77,-0.09921147013144785,0.08836871094481455,-0.9921147013144784
8.78,-0.09822872507286903,0.08468448006132334,-0.9822872507286903
8.79,-0.09685831611286325,0.08097935454953767,-0.9685831611286324
8.80,-0.09510565162951522,0.07725424859373656,-0.9510565162951521
8.81,-0.09297764858882511,0.07351008130807593,-0.929776485888251
8.82,-0.09048270524660208,0.06974777650980749,-0.9048270524660208
8.83,-0.08763066800438635,0.0659682624913432,-0.8763066800438635
8.84,-0.0844327925502017,0.062172471791213914,-0.844327925502017
8.85,-0.08090169943749519,0.058361340963976806,-0.8090169943749518
8.86,-0.0770513242775792,0.0545358103491359,-0.7705132427757919
8.87,-0.07289686274214172,0.05069682383912862,-0.7289686274214171
8.88,-0.06845471059286871,0.04684532864643103,-0.6845471059286872
8.89,-0.06374239897486911,0.0429822750698525,-0.6374239897486911
8.90,-0.0587785252292472,0.039108616260057634,-0.587785252292472
8.91,-0.05358267949789988,0.03522530798439582,-0.5358267949789988
8.92,-0.04817536741017148,0.03133330839107602,-0.4817536741017147
8.93,-0.042577929156507564,0.02743357777276152,-0.4257792915650756
8.94,-0.036812455268468464,0.023527078329629025,-0.36812455268468464
8.95,-0.030901699437495125,0.019614773931961482,-0.3090169943749512
8.96,-0.024868988716484866,0.015697629882327948,-0.24868988716484866
8.97,-0.018738131458572223,0.011776612677410514,-0.18738131458572224
8.98,-0.012533323356430573,0.007852689769532167,-0.12533323356430573
8.99,-0.006279051952931167,0.003926829327955062,-0.06279051952931167
9.00,-2.2043642384652358e-16,1.3777276490407724e-16,-2.204364238465236e-15
9.01,0.006279051952930727,-0.003926829327954787,0.06279051952930727
9.02,0.012533323356430134,-0.00785268976953189,0.12533323356430134
9.03,0.018738131458571793,-0.01177661267741024,0.1873813145857179
9.04,0.02486898871648444,-0.015697629882327674,0.2486898871648444
9.05,0.0309016994374947,-0.019614773931961208,0.309016994374947
9.06,0.036812455268468054,-0.02352707832962875,0.36812455268468053
9.07,0.04257792915650716,-0.027433577772761245,0.4257792915650716
9.08,0.04817536741017109,-0.031333308391075745,0.4817536741017108
9.09,0.0535826794978995,-0.03522530798439555,0.535826794978995
9.10,0.05877852522924685,-0.03910861626005736,0.5877852522924685
9.11,0.06374239897486877,-0.04298227506985223,0.6374239897486877
9.12,0.0684547105928684,-0.04684532864643076,0.684547105928684
9.13,0.07289686274214141,-0.05069682383912835,0.7289686274214141
9.14,0.07705132427757892,-0.054535810349135634,0.7705132427757891
9.15,0.08090169943749492,-0.05836134096397654,0.8090169943749492
9.16,0.08443279255020147,-0.06217247179121365,0.8443279255020146
9.17,0.08763066800438613,-0.06596826249134294,0.8763066800438613
9.18,0.0904827052466019,-0.06974777650980722,0.9048270524660189
9.19,0.09297764858882494,-0.07351008130807567,0.9297764858882493
9.20,0.09510565162951506,-0.0772542485937363,0.9510565162951506
9.21,0.09685831611286315,-0.0809793545495374,0.9685831611286314
9.22,0.09822872507286895,-0.08468448006132309,0.9822872507286895
9.23,0.0992114701314478,-0.0883687109448143,0.9921147013144779
9.24,0.09980267284282714,-0.09203113817116927,0.9980267284282713
9.25,0.1,-0.09567085809127242,1.0
9.26,0.09980267284282719,-0.0992869726586949,0.9980267284282719
9.27,0.09921147013144789,-0.10287858965127672,0.9921147013144789
9.28,0.09822872507286896,-0.10644482289126787,0.9822872507286896
9.29,0.09685831611286334,-0.10998479246397828,0.9685831611286334
9.30,0.09510565162951533,-0.11349762493488677,0.9510565162951532
9.31,0.09297764858882523,-0.1169824535651432,0.9297764858882523
9.32,0.09048270524660193,-0.12043841852542884,0.9048270524660192
9.33,0.08763066800438653,-0.1238646671081017,0.8763066800438652
9.34,0.08443279255020153,-0.12726035393759283,0.8443279255020152
9.35,0.08090169943749498,-0.130624641178987,0.8090169943749498
9.36,0.07705132427757944,-0.13395669874474872,0.7705132427757944
9.37,0.07289686274214148,-0.1372557044995327,0.7289686274214148
9.38,0.06845471059286846,-0.14052084446303292,0.6845471059286846
9.39,0.06374239897486886,-0.14375131301081973,0.6374239897486885
9.40,0.05877852522924751,-0.14694631307311817,0.587785252292475
9.41,0.05358267949789959,-0.15010505633147106,0.5358267949789959
9.42,0.048175367410171796,-0.15322676341324398,0.48175367410171793
9.43,0.0425779291565079,-0.15631066408392597,0.42577929156507893
9.44,0.036812455268468144,-0.15935599743717224,0.3681245526846814
9.45,0.030901699437495468,-0.16236201208254555,0.30901699437495467
9.46,0.024868988716485223,-0.1653279663309131,0.2486898871648522
9.47,0.018738131458572584,-0.16825312837744327,0.18738131458572585
9.48,0.012533323356430232,-0.17113677648217226,0.12533323356430232
9.49,0.006279051952931535,-0.1739781991480785,0.06279051952931534
9.50,5.879542597180472e-16,-0.17677669529663662,5.879542597180472e-15
9.51,-0.00627905195293107,-0.1795315744407971,-0.0627905195293107
9.52,-0.012533323356429772,-0.1822421568553526,-0.1253332335642977
9.53,-0.01873813145857213,-0.18490777374465228,-0.1873813145857213
9.54,-0.024868988716484772,-0.1875277674076146,-0.24868988716484772
9.55,-0.03090169943749503,-0.19010149140000784,-0.3090169943749503
9.56,-0.03681245526846771,-0.19262831069394726,-0.3681245526846771
9.57,-0.042577929156507474,-0.19510760183458253,-0.4257792915650747
9.58,-0.04817536741017139,-0.19753875309392252,-0.4817536741017138
9.59,-0.05358267949789919,-0.19992116462177242,-0.5358267949789919
9.60,-0.058778525229247126,-0.20225424859373678,-0.5877852522924712
9.61,-0.06374239897486848,-0.20453742935625563,-0.6374239897486849
9.62,-0.06845471059286813,-0.2067701435686401,-0.6845471059286813
9.63,-0.07289686274214117,-0.20895184034206757,-0.7289686274214117
9.64,-0.07705132427757914,-0.21108198137550388,-0.7705132427757914
9.65,-0.08090169943749471,-0.21316004108852304,-0.8090169943749471
9.66,-0.08443279255020127,-0.21518550675098577,-0.8443279255020126
9.67,-0.08763066800438629,-0.21715787860954777,-0.8763066800438629
9.68,-0.09048270524660174,-0.21907667001096573,-0.9048270524660174
9.69,-0.09297764858882507,-0.22094140752217328,-0.9297764858882507
9.70,-0.09510565162951518,-0.2227516310470918,-0.9510565162951518
9.71,-0.09685831611286322,-0.22450689394015402,-0.9685831611286322
9.72,-0.09822872507286888,-0.2262067631165049,-0.9822872507286887
9.73,-0.09921147013144783,-0.2278508191588614,-0.9921147013144783
9.74,-0.09980267284282716,-0.22943865642099529,-0.9980267284282716
9.75,-0.1,-0.2309698831278216,-1.0
9.76,-0.09980267284282718,-0.23244412147206284,-0.9980267284282717
9.77,-0.09921147013144785,-0.23386100770746673,-0.9921147013144784
9.78,-0.09822872507286903,-0.23522019223855617,-0.9822872507286903
9.79,-0.09685831611286326,-0.2365213397068862,-0.9685831611286325
9.80,-0.09510565162951522,-0.2377641290737885,-0.9510565162951521
9.81,-0.09297764858882512,-0.23894825369958256,-0.9297764858882511
9.82,-0.0904827052466021,-0.2400734214192357,-0.9048270524660209
9.83,-0.08763066800438636,-0.24113935461444952,-0.8763066800438636
9.84,-0.08443279255020172,-0.2421457902821577,-0.8443279255020172
9.85,-0.0809016994374952,-0.24309248009941903,-0.809016994374952
9.86,-0.07705132427757921,-0.24397919048468678,-0.7705132427757921
9.87,-0.07289686274214173,-0.24480570265544133,-0.7289686274214173
9.88,-0.06845471059286873,-0.24557181268217218,-0.6845471059286873
9.89,-0.06374239897486914,-0.24627733153869347,-0.6374239897486913
9.90,-0.05877852522924723,-0.24692208514878444,-0.5877852522924722
9.91,-0.0535826794978999,-0.24750591442913936,-0.535826794978999
9.92,-0.0481753674101715,-0.24802867532861947,-0.48175367410171493
9.93,-0.042577929156507585,-0.2484902388637949,-0.4257792915650758
9.94,-0.036812455268468484,-0.24889049115076997,-0.36812455268468486
9.95,-0.030901699437495146,-0.24922933343328196,-0.30901699437495145
9.96,-0.02486898871648489,-0.24950668210706792,-0.24868988716484888
9.97,-0.01873813145857225,-0.2497224687404925,-0.1873813145857225
9.98,-0.0125333233564306,-0.24987664009143287,-0.12533323356430598
9.99,-0.006279051952931192,-0.24996915812041515,-0.06279051952931192
10.00,-2.4492935982947064e-16,-0.25,-2.4492935982947065e-15
10.01,0.006279051952930704,-0.24996915812041515,0.06279051952930703
10.02,0.01253332335643011,-0.2498766400914329,0.1253332335643011
10.03,0.01873813145857177,-0.2497224687404925,0.1873813145857177
10.04,0.024868988716484415,-0.24950668210706795,0.24868988716484414
10.05,0.03090169943749468,-0.249229333433282,0.3090169943749468
10.06,0.03681245526846803,-0.24889049115077,0.3681245526846803
10.07,0.04257792915650714,-0.24849023886379493,0.4257792915650714
10.08,0.04817536741017106,-0.2480286753286195,0.4817536741017106
10.09,0.053582679497899494,-0.2475059144291394,0.5358267949789949
10.10,0.05877852522924683,-0.2469220851487845,0.5877852522924683
10.11,0.06374239897486876,-0.24627733153869352,0.6374239897486875
10.12,0.06845471059286838,-0.24557181268217224,0.6845471059286837
10.13,0.0728968627421414,-0.2448057026554414,0.728968627421414
10.14,0.07705132427757891,-0.24397919048468686,0.770513242775789
10.15,0.08090169943749492,-0.2430924800994191,0.8090169943749491
10.16,0.08443279255020146,-0.2421457902821578,0.8443279255020145
10.17,0.08763066800438613,-0.2411393546144496,0.8763066800438611
10.18,0.09048270524660189,-0.2400734214192358,0.9048270524660188
10.19,0.09297764858882519,-0.2389482536995825,0.9297764858882519
10.20,0.09510565162951506,-0.23776412907378858,0.9510565162951506
10.21,0.09685831611286332,-0.23652133970688616,0.9685831611286331
10.22,0.09822872507286881,-0.23522019223855645,0.982287250728688
10.23,0.0992114701314478,-0.23386100770746684,0.9921147013144779
10.24,0.09980267284282718,-0.23244412147206278,0.9980267284282718
10.25,0.1,-0.23096988312782188,1.0
10.26,0.09980267284282719,-0.2294386564209954,0.9980267284282719
10.27,0.09921147013144781,-0.22785081915886135,0.992114701314478
10.28,0.09822872507286912,-0.22620676311650523,0.982287250728691
10.29,0.09685831611286334,-0.22450689394015416,0.9685831611286334
10.30,0.09510565162951512,-0.22275163104709172,0.9510565162951511
10.31,0.09297764858882525,-0.22094140752217345,0.9297764858882525
10.32,0.09048270524660194,-0.2190766700109659,0.9048270524660194
10.33,0.0876306680043862,-0.21715787860954772,0.8763066800438619
10.34,0.08443279255020192,-0.21518550675098616,0.8443279255020191
10.35,0.080901699437495,-0.21316004108852318,0.80901699437495
10.36,0.07705132427757899,-0.2110819813755038,0.7705132427757899
10.37,0.072896862742142,-0.20895184034206798,0.7289686274214199
10.38,0.06845471059286849,-0.20677014356864026,0.6845471059286848
10.39,0.06374239897486943,-0.20453742935625607,0.6374239897486942
10.40,0.058778525229247515,-0.20225424859373695,0.5877852522924751
10.41,0.05358267949789961,-0.19992116462177262,0.5358267949789961
10.42,0.04817536741017119,-0.19753875309392244,0.4817536741017119
10.43,0.04257792915650792,-0.19510760183458273,0.42577929156507915
10.44,0.036812455268468165,-0.19262831069394748,0.36812455268468164
10.45,0.03090169943749482,-0.19010149140000776,0.3090169943749482
10.46,0.024868988716485248,-0.1875277674076148,0.24868988716485246
10.47,0.018738131458571915,-0.1849077737446522,0.18738131458571913
10.48,0.012533323356430962,-0.1822421568553531,0.12533323356430962
10.49,0.006279051952931558,-0.17953157444079731,0.06279051952931558
10.50,-9.809554005910593e-17,-0.17677669529663684,-9.809554005910593e-16
10.51,-0.006279051952930336,-0.17397819914807902,-0.06279051952930335
10.52,-0.012533323356429746,-0.1711367764821725,-0.12533323356429746
10.53,-0.018738131458572106,-0.1682531283774435,-0.18738131458572105
10.54,-0.02486898871648406,-0.16532796633091365,-0.24868988716484058
10.55,-0.030901699437495007,-0.16236201208254578,-0.30901699437495006
10.56,-0.036812455268468346,-0.15935599743717213,-0.36812455268468347
10.57,-0.04257792915650681,-0.15631066408392655,-0.42577929156506805
10.58,-0.048175367410171366,-0.1532267634132442,-0.4817536741017136
10.59,-0.05358267949789978,-0.15010505633147095,-0.5358267949789978
10.60,-0.05877852522924653,-0.14694631307311878,-0.5877852522924653
10.61,-0.06374239897486848,-0.14375131301081998,-0.6374239897486847
10.62,-0.06845471059286863,-0.1405208444630328,-0.6845471059286863
10.63,-0.07289686274214115,-0.13725570449953295,-0.7289686274214114
10.64,-0.07705132427757912,-0.133956698744749,-0.7705132427757911
10.65,-0.08090169943749512,-0.1306246411789869,-0.8090169943749511
10.66,-0.08443279255020125,-0.12726035393759308,-0.8443279255020125
10.67,-0.08763066800438629,-0.12386466710810197,-0.8763066800438628
10.68,-0.09048270524660203,-0.12043841852542873,-0.9048270524660202
10.69,-0.09297764858882479,-0.11698245356514386,-0.9297764858882479
10.70,-0.09510565162951518,-0.11349762493488705,-0.9510565162951516
10.71,-0.09685831611286305,-0.10998479246397895,-0.9685831611286304
10.72,-0.09822872507286888,-0.10644482289126815,-0.9822872507286887
10.73,-0.09921147013144782,-0.102878589651277,-0.9921147013144782
10.74,-0.09980267284282712,-0.09928697265869559,-0.9980267284282711
10.75,-0.1,-0.0956708580912727,-1.0
10.76,-0.09980267284282718,-0.09203113817116956,-0.9980267284282717
10.77,-0.09921147013144793,-0.088368710944815,-0.9921147013144793
10.78,-0.09822872507286905,-0.08468448006132338,-0.9822872507286904
10.79,-0.09685831611286326,-0.0809793545495377,-0.9685831611286325
10.80,-0.09510565162951545,-0.07725424859373702,-0.9510565162951544
10.81,-0.09297764858882512,-0.07351008130807596,-0.9297764858882512
10.82,-0.09048270524660179,-0.06974777650980708,-0.9048270524660179
10.83,-0.08763066800438672,-0.06596826249134366,-0.8763066800438671
10.84,-0.08443279255020174,-0.06217247179121394,-0.8443279255020173
10.85,-0.0809016994374948,-0.0583613409639764,-0.8090169943749479
10.86,-0.07705132427757969,-0.05453581034913636,-0.7705132427757968
10.87,-0.07289686274214174,-0.05069682383912865,-0.7289686274214174
10.88,-0.06845471059286823,-0.04684532864643062,-0.6845471059286823
10.89,-0.06374239897486915,-0.04298227506985253,-0.6374239897486915
10.90,-0.05877852522924724,-0.03910861626005766,-0.5877852522924724
10.91,-0.05358267949789933,-0.03522530798439541,-0.5358267949789932
10.92,-0.04817536741017214,-0.031333308391076495,-0.4817536741017214
10.93,-0.042577929156507606,-0.02743357777276155,-0.42577929156507605
10.94,-0.036812455268467846,-0.023527078329628612,-0.3681245526846785
10.95,-0.030901699437495846,-0.019614773931961958,-0.30901699437495844
10.96,-0.024868988716484915,-0.01569762988232798,-0.24868988716484913
10.97,-0.018738131458572973,-0.011776612677410989,-0.1873813145857297
10.98,-0.01253332335643062,-0.007852689769532198,-0.1253332335643062
10.99,-0.006279051952931217,-0.0039268293279550925,-0.06279051952931217
11.00,-9.799650315725178e-16,-6.124781447328236e-16,-9.799650315725178e-15
11.01,0.006279051952930679,0.003926829327954756,0.06279051952930678
11.02,0.012533323356430088,0.00785268976953186,0.12533323356430087
11.03,0.018738131458572442,0.011776612677410652,0.1873813145857244
11.04,0.024868988716484394,0.015697629882327643,0.24868988716484391
11.05,0.03090169943749533,0.01961477393196162,0.3090169943749533
11.06,0.036812455268467346,0.02352707832962828,0.3681245526846735
11.07,0.04257792915650712,0.027433577772761213,0.42577929156507116
11.08,0.04817536741017167,0.031333308391076155,0.48175367410171666
11.09,0.05358267949789887,0.03522530798439508,0.5358267949789887
11.10,0.05877852522924681,0.03910861626005733,0.587785252292468
11.11,0.06374239897486873,0.042982275069852194,0.6374239897486873
11.12,0.06845471059286784,0.04684532864643029,0.6845471059286784
11.13,0.07289686274214138,0.050696823839128324,0.7289686274214138
11.14,0.07705132427757934,0.05453581034913604,0.7705132427757934
11.15,0.08090169943749448,0.05836134096397608,0.8090169943749448
11.16,0.08443279255020145,0.062172471791213615,0.8443279255020144
11.17,0.08763066800438646,0.06596826249134334,0.8763066800438645
11.18,0.09048270524660157,0.06974777650980676,0.9048270524660157
11.19,0.09297764858882493,0.07351008130807564,0.9297764858882492
11.20,0.09510565162951529,0.0772542485937367,0.9510565162951528
11.21,0.09685831611286312,0.08097935454953738,0.9685831611286312
11.22,0.09822872507286895,0.08468448006132306,0.9822872507286894
11.23,0.09921147013144788,0.08836871094481469,0.9921147013144787
11.24,0.09980267284282714,0.09203113817116924,0.9980267284282713
11.25,0.1,0.09567085809127239,1.0
11.26,0.09980267284282715,0.09928697265869528,0.9980267284282714
11.27,0.0992114701314479,0.10287858965127669,0.992114701314479
11.28,0.09822872507286898,0.10644482289126785,0.9822872507286897
11.29,0.09685831611286318,0.10998479246397865,0.9685831611286317
11.30,0.09510565162951534,0.11349762493488674,0.9510565162951533
11.31,0.092977648588825,0.11698245356514357,0.9297764858882499
11.32,0.09048270524660226,0.12043841852542843,0.9048270524660226
11.33,0.08763066800438656,0.12386466710810168,0.8763066800438655
11.34,0.08443279255020154,0.1272603539375928,0.8443279255020154
11.35,0.08090169943749542,0.1306246411789866,0.8090169943749542
11.36,0.07705132427757946,0.13395669874474872,0.7705132427757946
11.37,0.07289686274214151,0.13725570449953267,0.7289686274214151
11.38,0.06845471059286902,0.14052084446303253,0.6845471059286902
11.39,0.06374239897486889,0.1437513130108197,0.6374239897486889
11.40,0.05877852522924696,0.1469463130731185,0.5877852522924696
11.41,0.053582679497900236,0.15010505633147067,0.5358267949790023
11.42,0.04817536741017184,0.15322676341324395,0.4817536741017183
11.43,0.042577929156507294,0.15631066408392627,0.42577929156507294
11.44,0.036812455268468845,0.15935599743717188,0.36812455268468847
11.45,0.030901699437495517,0.16236201208254553,0.30901699437495517
11.46,0.02486898871648458,0.1653279663309134,0.2486898871648458
11.47,0.018738131458572636,0.16825312837744325,0.18738131458572635
11.48,0.012533323356430282,0.17113677648217224,0.12533323356430282
11.49,0.006279051952930874,0.1739781991480788,0.06279051952930874
11.50,6.369401316839414e-16,0.1767766952966366,6.369401316839413e-15
11.51,-0.006279051952931021,0.17953157444079706,-0.06279051952931021
11.52,-0.012533323356430426,0.1822421568553529,-0.12533323356430426
11.53,-0.018738131458571384,0.18490777374465195,-0.18738131458571383
11.54,-0.024868988716484727,0.18752776740761457,-0.24868988716484725
11.55,-0.03090169943749431,0.19010149140000754,-0.30901699437494307
11.56,-0.036812455268467666,0.19262831069394726,-0.36812455268467664
11.57,-0.04257792915650743,0.1951076018345825,-0.42577929156507427
11.58,-0.04817536741017072,0.19753875309392224,-0.48175367410170716
11.59,-0.05358267949789916,0.1999211646217724,-0.5358267949789915
11.60,-0.058778525229247085,0.20225424859373675,-0.5877852522924708
11.61,-0.063742398974869,0.20453742935625588,-0.63742398974869
11.62,-0.0684547105928681,0.20677014356864007,-0.684547105928681
11.63,-0.07289686274214162,0.2089518403420678,-0.7289686274214161
11.64,-0.07705132427757866,0.21108198137550363,-0.7705132427757865
11.65,-0.08090169943749469,0.21316004108852302,-0.8090169943749468
11.66,-0.08443279255020163,0.21518550675098597,-0.8443279255020162
11.67,-0.08763066800438593,0.21715787860954755,-0.8763066800438593
11.68,-0.09048270524660172,0.21907667001096573,-0.9048270524660171
11.69,-0.09297764858882505,0.22094140752217328,-0.9297764858882505
11.70,-0.09510565162951495,0.2227516310470916,-0.9510565162951494
11.71,-0.09685831611286322,0.22450689394015402,-0.9685831611286321
11.72,-0.098228725072869,0.22620676311650506,-0.98228725072869
11.73,-0.09921147013144774,0.2278508191588612,-0.9921147013144773
11.74,-0.09980267284282716,0.22943865642099526,-0.9980267284282716
11.75,-0.1,0.23096988312782174,-1.0
11.76,-0.09980267284282722,0.23244412147206264,-0.9980267284282721
11.77,-0.09921147013144786,0.2338610077074667,-0.9921147013144785
11.78,-0.09822872507286891,0.2352201922385563,-0.982287250728689
11.79,-0.09685831611286344,0.23652133970688607,-0.9685831611286344
11.80,-0.09510565162951523,0.23776412907378847,-0.9510565162951523
11.81,-0.0929776485888254,0.23894825369958242,-0.9297764858882539
11.82,-0.09048270524660211,0.2400734214192357,-0.904827052466021
11.83,-0.08763066800438639,0.24113935461444952,-0.8763066800438638
11.84,-0.08443279255020136,0.24214579028215782,-0.8443279255020136
11.85,-0.08090169943749523,0.24309248009941903,-0.8090169943749522
11.86,-0.07705132427757926,0.24397919048468678,-0.7705132427757925
11.87,-0.07289686274214129,0.2448057026554414,-0.7289686274214128
11.88,-0.06845471059286877,0.24557181268217218,-0.6845471059286877
11.89,-0.06374239897486862,0.24627733153869352,-0.6374239897486862
11.90,-0.05877852522924784,0.24692208514878436,-0.5877852522924784
11.91,-0.053582679497899945,0.24750591442913936,-0.5358267949789994
11.92,-0.04817536741017153,0.24802867532861947,-0.4817536741017153
11.93,-0.04257792915650827,0.24849023886379484,-0.4257792915650827
11.94,-0.03681245526846853,0.24889049115076994,-0.3681245526846853
11.95,-0.03090169943749519,0.24922933343328196,-0.3090169943749519
11.96,-0.024868988716485626,0.2495066821070679,-0.24868988716485624
11.97,-0.018738131458572296,0.2497224687404925,-0.18738131458572296
11.98,-0.01253332335642994,0.2498766400914329,-0.1253332335642994
11.99,-0.006279051952931949,0.24996915812041515,-0.0627905195293195
12.00,-2.9391523179536476e-16,0.25,-2.9391523179536475e-15
12.01,0.006279051952931364,0.24996915812041515,0.06279051952931364
12.02,0.012533323356429357,0.2498766400914329,0.12533323356429357
12.03,0.01873813145857172,0.2497224687404925,0.1873813145857172
12.04,0.024868988716485057,0.24950668210706792,0.24868988716485055
12.05,0.03090169943749463,0.249229333433282,0.3090169943749463
12.06,0.036812455268467985,0.24889049115077,0.36812455268467986
12.07,0.04257792915650774,0.2484902388637949,0.4257792915650774
12.08,0.048175367410171026,0.2480286753286195,0.4817536741017102
12.09,0.053582679497899445,0.2475059144291394,0.5358267949789944
12.10,0.05877852522924736,0.24692208514878441,0.5877852522924736
12.11,0.06374239897486816,0.24627733153869358,0.6374239897486816
12.12,0.06845471059286834,0.24557181268217226,0.6845471059286834
12.13,0.07289686274214088,0.2448057026554415,0.7289686274214088
12.14,0.07705132427757888,0.24397919048468686,0.7705132427757887
12.15,0.08090169943749488,0.2430924800994191,0.8090169943749488
12.16,0.08443279255020104,0.2421457902821579,0.8443279255020104
12.17,0.0876306680043861,0.2411393546144496,0.8763066800438609
12.18,0.09048270524660186,0.2400734214192358,0.9048270524660186
12.19,0.09297764858882518,0.2389482536995825,0.9297764858882518
12.20,0.09510565162951505,0.23776412907378858,0.9510565162951504
12.21,0.0968583161128633,0.23652133970688619,0.968583161128633
12.22,0.0982287250728688,0.23522019223855645,0.9822872507286879
12.23,0.09921147013144778,0.23386100770746684,0.9921147013144778
12.24,0.09980267284282718,0.23244412147206278,0.9980267284282718
12.25,0.1,0.23096988312782188,1.0
12.26,0.09980267284282719,0.22943865642099542,0.9980267284282719
12.27,0.09921147013144782,0.22785081915886135,0.9921147013144781
12.28,0.09822872507286912,0.22620676311650523,0.9822872507286912
12.29,0.09685831611286336,0.2245068939401542,0.9685831611286335
12.30,0.09510565162951512,0.22275163104709175,0.9510565162951512
12.31,0.09297764858882528,0.22094140752217345,0.9297764858882527
12.32,0.09048270524660196,0.2190766700109659,0.9048270524660196
12.33,0.08763066800438622,0.21715787860954772,0.8763066800438621
12.34,0.08443279255020195,0.21518550675098616,0.8443279255020194
12.35,0.08090169943749503,0.2131600410885232,0.8090169943749502
12.36,0.07705132427757903,0.21108198137550382,0.7705132427757903
12.37,0.07289686274214202,0.20895184034206798,0.7289686274214202
12.38,0.06845471059286852,0.2067701435686403,0.6845471059286852
12.39,0.06374239897486945,0.20453742935625607,0.6374239897486945
12.40,0.058778525229247564,0.20225424859373697,0.5877852522924756
12.41,0.053582679497899646,0.19992116462177262,0.5358267949789964
12.42,0.048175367410171234,0.19753875309392246,0.4817536741017123
12.43,0.04257792915650796,0.19510760183458273,0.4257792915650796
12.44,0.036812455268468214,0.19262831069394748,0.36812455268468214
12.45,0.030901699437494864,0.1901014914000078,0.3090169943749486
12.46,0.024868988716485296,0.18752776740761481,0.24868988716485294
12.47,0.01873813145857196,0.1849077737446522,0.1873813145857196
12.48,0.012533323356431009,0.18224215685535314,0.1253332335643101
12.49,0.0062790519529316085,0.17953157444079731,0.06279051952931608
12.50,-4.91096680932118e-17,0.17677669529663687,-4.91096680932118e-16
12.51,-0.0062790519529302875,0.17397819914807905,-0.06279051952930287
12.52,-0.012533323356429699,0.17113677648217251,-0.125333233564297
12.53,-0.018738131458572057,0.16825312837744352,-0.18738131458572058
12.54,-0.024868988716484013,0.16532796633091368,-0.2486898871648401
12.55,-0.030901699437494958,0.1623620120825458,-0.30901699437494956
12.56,-0.036812455268468304,0.15935599743717216,-0.368124552684683
12.57,-0.042577929156506766,0.15631066408392658,-0.4257792915650676
12.58,-0.048175367410171324,0.15322676341324423,-0.4817536741017132
12.59,-0.053582679497899736,0.15010505633147098,-0.5358267949789973
12.60,-0.058778525229246495,0.14694631307311878,-0.5877852522924649
12.61,-0.06374239897486843,0.14375131301082,-0.6374239897486843
12.62,-0.0684547105928686,0.14052084446303284,-0.684547105928686
12.63,-0.07289686274214112,0.13725570449953298,-0.7289686274214111
12.64,-0.0770513242775791,0.13395669874474903,-0.7705132427757909
12.65,-0.08090169943749509,0.1306246411789869,-0.8090169943749508
12.66,-0.08443279255020124,0.1272603539375931,-0.8443279255020123
12.67,-0.08763066800438626,0.123864667108102,-0.8763066800438626
12.68,-0.09048270524660201,0.12043841852542876,-0.90482705246602
12.69,-0.09297764858882479,0.11698245356514389,-0.9297764858882478
12.70,-0.09510565162951516,0.11349762493488708,-0.9510565162951515
12.71,-0.09685831611286304,0.10998479246397898,-0.9685831611286303
12.72,-0.09822872507286887,0.10644482289126818,-0.9822872507286886
12.73,-0.09921147013144782,0.10287858965127702,-0.9921147013144782
12.74,-0.09980267284282711,0.09928697265869561,-0.998026728428271
12.75,-0.1,0.09567085809127272,-1.0
12.76,-0.09980267284282718,0.09203113817116959,-0.9980267284282717
12.77,-0.09921147013144795,0.08836871094481502,-0.9921147013144794
12.78,-0.09822872507286906,0.08468448006132341,-0.9822872507286905
12.79,-0.09685831611286327,0.08097935454953772,-0.9685831611286327
12.80,-0.09510565162951545,0.07725424859373704,-0.9510565162951545
12.81,-0.09297764858882514,0.07351008130807599,-0.9297764858882513
12.82,-0.09048270524660182,0.06974777650980712,-0.9048270524660181
12.83,-0.08763066800438674,0.06596826249134369,-0.8763066800438674
12.84,-0.08443279255020175,0.062172471791213976,-0.8443279255020175
12.85,-0.08090169943749483,0.05836134096397644,-0.8090169943749482
12.86,-0.07705132427757971,0.05453581034913639,-0.7705132427757971
12.87,-0.07289686274214179,0.050696823839128685,-0.7289686274214178
12.88,-0.06845471059286827,0.04684532864643065,-0.6845471059286827
12.89,-0.06374239897486919,0.04298227506985256,-0.6374239897486919
12.90,-0.058778525229247286,0.039108616260057696,-0.5877852522924728
12.91,-0.053582679497899355,0.035225307984395444,-0.5358267949789935
12.92,-0.04817536741017218,0.03133330839107652,-0.48175367410172176
12.93,-0.042577929156507655,0.02743357777276158,-0.4257792915650765
12.94,-0.036812455268467895,0.023527078329628644,-0.3681245526846789
12.95,-0.03090169943749589,0.01961477393196199,-0.3090169943749589
12.96,-0.024868988716484963,0.01569762988232801,-0.2486898871648496
12.97,-0.01873813145857302,0.011776612677411018,-0.1873813145857302
12.98,-0.01253332335643067,0.007852689769532227,-0.1253332335643067
12.99,-0.006279051952931266,0.003926829327955124,-0.06279051952931265
13.00,3.9213456798178836e-16,-2.450841049886177e-16,3.921345679817883e-15
13.01,0.00627905195293063,-0.003926829327954726,0.0627905195293063
13.02,0.012533323356430037,-0.00785268976953183,0.12533323356430037
13.03,0.018738131458572393,-0.011776612677410621,0.18738131458572393
13.04,0.024868988716484346,-0.01569762988232761,0.24868988716484344
13.05,0.030901699437495284,-0.01961477393196159,0.30901699437495284
13.06,0.0368124552684673,-0.023527078329628248,0.368124552684673
13.07,0.04257792915650707,-0.027433577772761186,0.4257792915650707
13.08,0.04817536741017162,-0.03133330839107613,0.4817536741017162
13.09,0.05358267949789883,-0.03522530798439505,0.5358267949789882
13.10,0.05877852522924677,-0.0391086162600573,0.5877852522924677
13.11,0.0637423989748687,-0.042982275069852166,0.637423989748687
13.12,0.06845471059286781,-0.04684532864643026,0.6845471059286781
13.13,0.07289686274214134,-0.0506968238391283,0.7289686274214134
13.14,0.07705132427757931,-0.054535810349136,0.770513242775793
13.15,0.08090169943749445,-0.05836134096397605,0.8090169943749445
13.16,0.08443279255020142,-0.06217247179121359,0.8443279255020141
13.17,0.08763066800438643,-0.06596826249134331,0.8763066800438643
13.18,0.09048270524660156,-0.06974777650980674,0.9048270524660155
13.19,0.0929776485888249,-0.07351008130807561,0.929776485888249
13.20,0.09510565162951526,-0.07725424859373667,0.9510565162951525
13.21,0.09685831611286311,-0.08097935454953735,0.9685831611286311
13.22,0.09822872507286894,-0.08468448006132304,0.9822872507286893
13.23,0.09921147013144788,-0.08836871094481465,0.9921147013144787
13.24,0.09980267284282712,-0.09203113817116922,0.9980267284282712
13.25,0.1,-0.09567085809127236,1.0
13.26,0.09980267284282715,-0.09928697265869525,0.9980267284282714
13.27,0.0992114701314479,-0.10287858965127666,0.992114701314479
13.28,0.09822872507286899,-0.10644482289126782,0.9822872507286898
13.29,0.09685831611286319,-0.10998479246397862,0.9685831611286319
13.30,0.09510565162951536,-0.11349762493488671,0.9510565162951535
13.31,0.09297764858882501,-0.11698245356514354,0.9297764858882501
13.32,0.09048270524660228,-0.1204384185254284,0.9048270524660227
13.33,0.08763066800438657,-0.12386466710810165,0.8763066800438657
13.34,0.08443279255020159,-0.12726035393759277,0.8443279255020157
13.35,0.08090169943749546,-0.13062464117898656,0.8090169943749546
13.36,0.07705132427757949,-0.1339566987447487,0.7705132427757949
13.37,0.07289686274214155,-0.13725570449953264,0.7289686274214154
13.38,0.06845471059286905,-0.1405208444630325,0.6845471059286905
13.39,0.06374239897486893,-0.14375131301081967,0.6374239897486892
13.40,0.05877852522924701,-0.14694631307311848,0.58778525229247
13.41,0.05358267949790027,-0.15010505633147064,0.5358267949790027
13.42,0.04817536741017188,-0.15322676341324393,0.48175367410171877
13.43,0.04257792915650734,-0.15631066408392624,0.4257792915650734
13.44,0.0368124552684689,-0.15935599743717185,0.36812455268468897
13.45,0.030901699437495562,-0.1623620120825455,0.3090169943749556
13.46,0.02486898871648463,-0.16532796633091337,0.24868988716484627
13.47,0.01873813145857268,-0.16825312837744325,0.18738131458572682
13.48,0.012533323356430329,-0.1711367764821722,0.1253332335643033
13.49,0.0062790519529309224,-0.17397819914807877,0.06279051952930922
13.50,6.859260036498355e-16,-0.1767766952966366,6.859260036498355e-15
13.51,-0.006279051952930973,-0.17953157444079704,-0.06279051952930972
13.52,-0.012533323356430379,-0.18224215685535286,-0.1253332335643038
13.53,-0.018738131458571335,-0.18490777374465195,-0.18738131458571336
13.54,-0.024868988716484675,-0.18752776740761454,-0.24868988716484675
13.55,-0.030901699437494257,-0.19010149140000754,-0.30901699437494257
13.56,-0.036812455268467624,-0.19262831069394723,-0.3681245526846762
13.57,-0.042577929156507384,-0.19510760183458248,-0.4257792915650738
13.58,-0.04817536741017068,-0.19753875309392221,-0.4817536741017068
13.59,-0.05358267949789911,-0.1999211646217724,-0.5358267949789911
13.60,-0.05877852522924705,-0.20225424859373672,-0.5877852522924705
13.61,-0.06374239897486897,-0.20453742935625585,-0.6374239897486896
13.62,-0.06845471059286805,-0.20677014356864007,-0.6845471059286805
13.63,-0.07289686274214158,-0.2089518403420678,-0.7289686274214158
13.64,-0.07705132427757862,-0.2110819813755036,-0.7705132427757861
13.65,-0.08090169943749465,-0.21316004108852302,-0.8090169943749465
13.66,-0.0844327925502016,-0.21518550675098597,-0.844327925502016
13.67,-0.0876306680043859,-0.21715787860954752,-0.876306680043859
13.68,-0.0904827052466017,-0.2190766700109657,-0.9048270524660169
13.69,-0.09297764858882504,-0.22094140752217326,-0.9297764858882503
13.70,-0.09510565162951493,-0.22275163104709156,-0.9510565162951492
13.71,-0.0968583161128632,-0.224506893940154,-0.968583161128632
13.72,-0.098228725072869,-0.22620676311650506,-0.9822872507286899
13.73,-0.09921147013144774,-0.2278508191588612,-0.9921147013144773
13.74,-0.09980267284282715,-0.22943865642099526,-0.9980267284282714
13.75,-0.1,-0.23096988312782174,-1.0
13.76,-0.09980267284282722,-0.23244412147206264,-0.9980267284282721
13.77,-0.09921147013144786,-0.2338610077074667,-0.9921147013144785
13.78,-0.09822872507286892,-0.2352201922385563,-0.9822872507286892
13.79,-0.09685831611286345,-0.23652133970688605,-0.9685831611286345
13.80,-0.09510565162951524,-0.23776412907378847,-0.9510565162951524
13.81,-0.09297764858882542,-0.2389482536995824,-0.9297764858882541
13.82,-0.09048270524660212,-0.24007342141923568,-0.9048270524660212
13.83,-0.0876306680043864,-0.24113935461444952,-0.876306680043864
13.84,-0.08443279255020139,-0.24214579028215782,-0.8443279255020139
13.85,-0.08090169943749526,-0.24309248009941903,-0.8090169943749526
13.86,-0.07705132427757928,-0.24397919048468678,-0.7705132427757928
13.87,-0.07289686274214131,-0.2448057026554414,-0.7289686274214131
13.88,-0.06845471059286881,-0.24557181268217218,-0.6845471059286881
13.89,-0.06374239897486866,-0.24627733153869352,-0.6374239897486866
13.90,-0.05877852522924788,-0.24692208514878436,-0.5877852522924788
13.91,-0.05358267949789998,-0.24750591442913936,-0.5358267949789998
13.92,-0.04817536741017158,-0.24802867532861944,-0.48175367410171577
13.93,-0.04257792915650832,-0.24849023886379484,-0.42577929156508315
13.94,-0.036812455268468575,-0.24889049115076994,-0.36812455268468575
13.95,-0.030901699437495236,-0.24922933343328196,-0.30901699437495234
13.96,-0.02486898871648567,-0.2495066821070679,-0.2486898871648567
13.97,-0.01873813145857235,-0.2497224687404925,-0.18738131458572346
13.98,-0.01253332335642999,-0.2498766400914329,-0.1253332335642999
13.99,-0.006279051952932,-0.24996915812041515,-0.06279051952932
14.00,-3.4290110376125893e-16,-0.25,-3.429011037612589e-15
14.01,0.0062790519529313145,-0.24996915812041515,0.06279051952931314
14.02,0.012533323356429309,-0.2498766400914329,0.12533323356429307
14.03,0.018738131458571672,-0.2497224687404925,0.18738131458571672
14.04,0.02486898871648501,-0.24950668210706792,0.24868988716485008
14.05,0.030901699437494587,-0.249229333433282,0.30901699437494584
14.06,0.036812455268467936,-0.24889049115077,0.36812455268467936
14.07,0.042577929156507696,-0.2484902388637949,0.42577929156507693
14.08,0.04817536741017098,-0.2480286753286195,0.4817536741017098
14.09,0.0535826794978994,-0.2475059144291394,0.535826794978994
14.10,0.05877852522924733,-0.24692208514878444,0.5877852522924732
14.11,0.06374239897486814,-0.2462773315386936,0.6374239897486813
14.12,0.06845471059286831,-0.24557181268217226,0.6845471059286831
14.13,0.07289686274214084,-0.2448057026554415,0.7289686274214084
14.14,0.07705132427757884,-0.24397919048468686,0.7705132427757884
14.15,0.08090169943749487,-0.2430924800994191,0.8090169943749486
14.16,0.08443279255020103,-0.24214579028215794,0.8443279255020102
14.17,0.08763066800438607,-0.24113935461444963,0.8763066800438607
14.18,0.09048270524660185,-0.24007342141923582,0.9048270524660184
14.19,0.09297764858882517,-0.23894825369958253,0.9297764858882516
14.20,0.09510565162951504,-0.2377641290737886,0.9510565162951503
14.21,0.09685831611286329,-0.23652133970688619,0.9685831611286329
14.22,0.0982287250728688,-0.23522019223855645,0.9822872507286879
14.23,0.09921147013144777,-0.23386100770746684,0.9921147013144777
14.24,0.09980267284282718,-0.2324441214720628,0.9980267284282717
14.25,0.1,-0.2309698831278219,1.0
14.26,0.09980267284282719,-0.22943865642099542,0.9980267284282719
14.27,0.09921147013144782,-0.22785081915886138,0.9921147013144781
14.28,0.09822872507286912,-0.22620676311650523,0.9822872507286912
14.29,0.09685831611286337,-0.2245068939401542,0.9685831611286336
14.30,0.09510565162951513,-0.22275163104709175,0.9510565162951513
14.31,0.09297764858882529,-0.22094140752217348,0.9297764858882528
14.32,0.09048270524660199,-0.21907667001096592,0.9048270524660198
14.33,0.08763066800438624,-0.21715787860954774,0.8763066800438624
14.34,0.08443279255020197,-0.2151855067509862,0.8443279255020196
14.35,0.08090169943749506,-0.21316004108852324,0.8090169943749506
14.36,0.07705132427757906,-0.21108198137550385,0.7705132427757906
14.37,0.07289686274214206,-0.208951840342068,0.7289686274214205
14.38,0.06845471059286855,-0.20677014356864032,0.6845471059286855
14.39,0.06374239897486948,-0.2045374293562561,0.6374239897486949
14.40,0.058778525229247605,-0.20225424859373697,0.587785252292476
14.41,0.05358267949789969,-0.19992116462177265,0.5358267949789969
14.42,0.04817536741017128,-0.1975387530939225,0.48175367410171277
14.43,0.04257792915650801,-0.19510760183458276,0.42577929156508004
14.44,0.03681245526846826,-0.1926283106939475,0.3681245526846826
14.45,0.030901699437494913,-0.19010149140000782,0.3090169943749491
14.46,0.02486898871648534,-0.18752776740761481,0.2486898871648534
14.47,0.01873813145857201,-0.18490777374465223,0.18738131458572008
14.48,0.012533323356431059,-0.18224215685535317,0.1253332335643106
14.49,0.006279051952931657,-0.17953157444079734,0.06279051952931657
14.50,-1.2379612731767154e-19,-0.1767766952966369,-1.2379612731767154e-18
14.51,-0.006279051952930239,-0.17397819914807908,-0.06279051952930238
14.52,-0.012533323356429649,-0.17113677648217251,-0.1253332335642965
14.53,-0.01873813145857201,-0.16825312837744355,-0.18738131458572008
14.54,-0.024868988716483964,-0.1653279663309137,-0.24868988716483964
14.55,-0.030901699437494913,-0.16236201208254583,-0.3090169943749491
14.56,-0.03681245526846826,-0.1593559974371722,-0.3681245526846826
14.57,-0.04257792915650672,-0.15631066408392658,-0.42577929156506716
14.58,-0.04817536741017128,-0.15322676341324426,-0.48175367410171277
14.59,-0.05358267949789969,-0.150105056331471,-0.5358267949789969
14.60,-0.05877852522924645,-0.1469463130731188,-0.5877852522924645
14.61,-0.0637423989748684,-0.14375131301082003,-0.637423989748684
14.62,-0.06845471059286855,-0.14052084446303287,-0.6845471059286855
14.63,-0.07289686274214108,-0.137255704499533,-0.7289686274214108
14.64,-0.07705132427757906,-0.13395669874474905,-0.7705132427757906
14.65,-0.08090169943749506,-0.13062464117898692,-0.8090169943749506
14.66,-0.0844327925502012,-0.12726035393759313,-0.844327925502012
14.67,-0.08763066800438624,-0.12386466710810203,-0.8763066800438624
14.68,-0.09048270524660199,-0.12043841852542878,-0.9048270524660198
14.69,-0.09297764858882476,-0.11698245356514392,-0.9297764858882476
14.70,-0.09510565162951513,-0.11349762493488709,-0.9510565162951513
14.71,-0.09685831611286302,-0.109984792463979,-0.9685831611286302
14.72,-0.09822872507286885,-0.1064448228912682,-0.9822872507286885
14.73,-0.09921147013144782,-0.10287858965127705,-0.9921147013144781
14.74,-0.09980267284282711,-0.09928697265869564,-0.998026728428271
14.75,-0.1,-0.09567085809127275,-1.0
14.76,-0.09980267284282718,-0.09203113817116962,-0.9980267284282717
14.77,-0.09921147013144796,-0.08836871094481505,-0.9921147013144795
14.78,-0.09822872507286906,-0.08468448006132344,-0.9822872507286906
14.79,-0.09685831611286329,-0.08097935454953775,-0.9685831611286329
14.80,-0.09510565162951547,-0.07725424859373707,-0.9510565162951546
14.81,-0.09297764858882517,-0.07351008130807601,-0.9297764858882516
14.82,-0.09048270524660185,-0.06974777650980715,-0.9048270524660184
14.83,-0.08763066800438676,-0.06596826249134372,-0.8763066800438676
14.84,-0.08443279255020178,-0.062172471791214004,-0.8443279255020177
14.85,-0.08090169943749487,-0.058361340963976466,-0.8090169943749486
14.86,-0.07705132427757976,-0.054535810349136425,-0.7705132427757975
14.87,-0.07289686274214181,-0.05069682383912871,-0.7289686274214181
14.88,-0.06845471059286831,-0.046845328646430685,-0.6845471059286831
14.89,-0.06374239897486923,-0.04298227506985259,-0.6374239897486923
14.90,-0.05877852522924733,-0.039108616260057724,-0.5877852522924732
14.91,-0.0535826794978994,-0.03522530798439547,-0.535826794978994
14.92,-0.048175367410172226,-0.03133330839107655,-0.4817536741017222
14.93,-0.042577929156507696,-0.02743357777276161,-0.42577929156507693
14.94,-0.036812455268467936,-0.023527078329628675,-0.36812455268467936
14.95,-0.030901699437495933,-0.019614773931962017,-0.30901699437495933
14.96,-0.02486898871648501,-0.01569762988232804,-0.24868988716485008
14.97,-0.01873813145857307,-0.01177661267741105,-0.18738131458573068
14.98,-0.012533323356430717,-0.007852689769532259,-0.12533323356430717
14.99,-0.0062790519529313145,-0.003926829327955154,-0.06279051952931314
15.00,-1.0779367755043063e-15,-6.737104846901913e-16,-1.0779367755043061e-14
15.01,0.006279051952930582,0.003926829327954695,0.06279051952930581
15.02,0.01253332335642999,0.007852689769531799,0.1253332335642999
15.03,0.01873813145857235,0.01177661267741059,0.18738131458572346
15.04,0.024868988716484297,0.015697629882327584,0.24868988716484297
15.05,0.03090169943749524,0.01961477393196156,0.3090169943749524
15.06,0.036812455268467256,0.023527078329628217,0.36812455268467253
15.07,0.04257792915650703,0.027433577772761154,0.4257792915650703
15.08,0.04817536741017158,0.0313333083910761,0.48175367410171577
15.09,0.05358267949789878,0.03522530798439502,0.5358267949789878
15.10,0.05877852522924673,0.039108616260057266,0.5877852522924673
15.11,0.06374239897486866,0.04298227506985214,0.6374239897486866
15.12,0.06845471059286777,0.046845328646430234,0.6845471059286777
15.13,0.07289686274214131,0.05069682383912826,0.7289686274214131
15.14,0.07705132427757928,0.054535810349135974,0.7705132427757928
15.15,0.08090169943749442,0.05836134096397602,0.8090169943749442
15.16,0.08443279255020139,0.06217247179121356,0.8443279255020139
15.17,0.0876306680043864,0.06596826249134329,0.876306680043864
15.18,0.09048270524660153,0.06974777650980671,0.9048270524660152
15.19,0.0929776485888249,0.07351008130807557,0.9297764858882489
15.20,0.09510565162951524,0.07725424859373664,0.9510565162951524
15.21,0.09685831611286311,0.08097935454953732,0.968583161128631
15.22,0.09822872507286892,0.08468448006132301,0.9822872507286892
15.23,0.09921147013144786,0.08836871094481462,0.9921147013144785
15.24,0.09980267284282712,0.09203113817116919,0.9980267284282712
15.25,0.1,0.09567085809127233,1.0
15.26,0.09980267284282715,0.09928697265869522,0.9980267284282714
15.27,0.09921147013144792,0.10287858965127664,0.9921147013144791
15.28,0.098228725072869,0.10644482289126779,0.9822872507286899
15.29,0.0968583161128632,0.10998479246397859,0.968583161128632
15.30,0.09510565162951537,0.11349762493488669,0.9510565162951536
15.31,0.09297764858882504,0.11698245356514352,0.9297764858882503
15.32,0.09048270524660229,0.12043841852542837,0.9048270524660229
15.33,0.0876306680043866,0.12386466710810162,0.8763066800438659
15.34,0.0844327925502016,0.12726035393759275,0.844327925502016
15.35,0.08090169943749549,0.13062464117898653,0.8090169943749549
15.36,0.07705132427757953,0.13395669874474866,0.7705132427757952
15.37,0.07289686274214158,0.13725570449953262,0.7289686274214158
15.38,0.0684547105928691,0.14052084446303248,0.684547105928691
15.39,0.06374239897486897,0.14375131301081964,0.6374239897486896
15.40,0.05877852522924705,0.14694631307311845,0.5877852522924705
15.41,0.05358267949790031,0.15010505633147062,0.5358267949790031
15.42,0.04817536741017192,0.1532267634132439,0.4817536741017192
15.43,0.042577929156507384,0.15631066408392624,0.4257792915650738
15.44,0.03681245526846894,0.15935599743717183,0.3681245526846894
15.45,0.030901699437495614,0.16236201208254547,0.3090169943749561
15.46,0.024868988716484675,0.16532796633091335,0.24868988716484675
15.47,0.01873813145857273,0.16825312837744322,0.1873813145857273
15.48,0.012533323356430379,0.17113677648217218,0.1253332335643038
15.49,0.006279051952930971,0.17397819914807874,0.06279051952930971
15.50,7.349118756157296e-16,0.17677669529663656,7.349118756157295e-15
15.51,-0.0062790519529309224,0.17953157444079704,-0.06279051952930922
15.52,-0.012533323356430329,0.18224215685535283,-0.1253332335643033
15.53,-0.018738131458571287,0.18490777374465192,-0.18738131458571286
15.54,-0.02486898871648463,0.1875277674076145,-0.24868988716484627
15.55,-0.030901699437494212,0.1901014914000075,-0.3090169943749421
15.56,-0.036812455268467575,0.1926283106939472,-0.36812455268467575
15.57,-0.04257792915650734,0.19510760183458248,-0.4257792915650734
15.58,-0.04817536741017064,0.1975387530939222,-0.48175367410170633
15.59,-0.05358267949789907,0.19992116462177237,-0.5358267949789907
15.60,-0.05877852522924701,0.20225424859373672,-0.58778525229247
15.61,-0.06374239897486893,0.20453742935625582,-0.6374239897486892
15.62,-0.06845471059286802,0.20677014356864004,-0.6845471059286802
15.63,-0.07289686274214155,0.20895184034206776,-0.7289686274214154
15.64,-0.0770513242775786,0.2110819813755036,-0.7705132427757859
15.65,-0.08090169943749463,0.213160041088523,-0.8090169943749462
15.66,-0.08443279255020159,0.21518550675098594,-0.8443279255020157
15.67,-0.08763066800438589,0.2171578786095475,-0.8763066800438588
15.68,-0.09048270524660168,0.2190766700109657,-0.9048270524660167
15.69,-0.09297764858882501,0.22094140752217326,-0.9297764858882501
15.70,-0.09510565162951491,0.22275163104709156,-0.9510565162951491
15.71,-0.09685831611286319,0.224506893940154,-0.9685831611286319
15.72,-0.09822872507286899,0.22620676311650503,-0.9822872507286898
15.73,-0.09921147013144772,0.22785081915886118,-0.9921147013144772
15.74,-0.09980267284282715,0.22943865642099523,-0.9980267284282714
15.75,-0.1,0.2309698831278217,-1.0
15.76,-0.09980267284282722,0.23244412147206264,-0.9980267284282721
15.77,-0.09921147013144788,0.23386100770746668,-0.9921147013144787
15.78,-0.09822872507286894,0.2352201922385563,-0.9822872507286893
15.79,-0.09685831611286347,0.23652133970688605,-0.9685831611286346
15.80,-0.09510565162951526,0.23776412907378847,-0.9510565162951525
15.81,-0.09297764858882543,0.2389482536995824,-0.9297764858882542
15.82,-0.09048270524660215,0.24007342141923568,-0.9048270524660215
15.83,-0.08763066800438643,0.2411393546144495,-0.8763066800438643
15.84,-0.08443279255020142,0.2421457902821578,-0.8443279255020141
15.85,-0.0809016994374953,0.24309248009941903,-0.8090169943749529
15.86,-0.07705132427757931,0.24397919048468678,-0.770513242775793
15.87,-0.07289686274214134,0.2448057026554414,-0.7289686274214134
15.88,-0.06845471059286884,0.24557181268217218,-0.6845471059286884
15.89,-0.0637423989748687,0.24627733153869352,-0.637423989748687
15.90,-0.05877852522924792,0.24692208514878436,-0.5877852522924791
15.91,-0.05358267949790002,0.24750591442913936,-0.5358267949790002
15.92,-0.04817536741017162,0.24802867532861944,-0.4817536741017162
15.93,-0.04257792915650836,0.24849023886379484,-0.4257792915650836
15.94,-0.03681245526846862,0.24889049115076994,-0.3681245526846862
15.95,-0.030901699437495284,0.24922933343328196,-0.30901699437495284
15.96,-0.024868988716485723,0.2495066821070679,-0.2486898871648572
15.97,-0.018738131458572393,0.2497224687404925,-0.18738131458572393
15.98,-0.012533323356430037,0.2498766400914329,-0.12533323356430037
15.99,-0.006279051952932048,0.24996915812041515,-0.06279051952932048
16.00,-3.9188697572715305e-16,0.25,-3.91886975727153e-15
16.01,0.006279051952931266,0.24996915812041515,0.06279051952931265
16.02,0.01253332335642926,0.2498766400914329,0.1253332335642926
16.03,0.01873813145857302,0.24972246874049248,0.1873813145857302
16.04,0.024868988716484963,0.24950668210706792,0.2486898871648496
16.05,0.030901699437494542,0.249229333433282,0.3090169943749454
16.06,0.03681245526846657,0.24889049115077008,0.3681245526846657
16.07,0.042577929156507655,0.2484902388637949,0.4257792915650765
16.08,0.048175367410169694,0.24802867532861964,0.4817536741016969
16.09,0.053582679497899355,0.2475059144291394,0.5358267949789935
16.10,0.058778525229247286,0.24692208514878444,0.5877852522924728
16.11,0.0637423989748681,0.2462773315386936,0.637423989748681
16.12,0.06845471059286931,0.2455718126821721,0.6845471059286931
16.13,0.07289686274214081,0.24480570265544152,0.7289686274214081
16.14,0.07705132427757881,0.2439791904846869,0.770513242775788
16.15,0.08090169943749399,0.24309248009941933,0.8090169943749399
16.16,0.08443279255020099,0.24214579028215794,0.8443279255020099
16.17,0.08763066800438674,0.2411393546144494,0.8763066800438674
16.18,0.09048270524660182,0.24007342141923582,0.9048270524660181
16.19,0.09297764858882514,0.23894825369958253,0.9297764858882513
16.20,0.09510565162951502,0.2377641290737886,0.9510565162951502
16.21,0.09685831611286327,0.2365213397068862,0.9685831611286327
16.22,0.09822872507286878,0.23522019223855647,0.9822872507286878
16.23,0.09921147013144777,0.23386100770746687,0.9921147013144777
16.24,0.09980267284282708,0.23244412147206314,0.9980267284282708
16.25,0.1,0.2309698831278219,1.0
16.26,0.09980267284282711,0.2294386564209951,0.998026728428271
16.27,0.09921147013144782,0.22785081915886138,0.9921147013144782
16.28,0.09822872507286887,0.22620676311650487,0.9822872507286886
16.29,0.09685831611286339,0.2245068939401542,0.9685831611286337
16.30,0.09510565162951516,0.22275163104709178,0.9510565162951515
16.31,0.09297764858882583,0.2209414075221739,0.9297764858882582
16.32,0.09048270524660201,0.21907667001096592,0.90482705246602
16.33,0.08763066800438696,0.2171578786095482,0.8763066800438695
16.34,0.08443279255020199,0.2151855067509862,0.8443279255020198
16.35,0.08090169943749426,0.21316004108852277,0.8090169943749425
16.36,0.0770513242775791,0.21108198137550385,0.7705132427757909
16.37,0.07289686274214112,0.20895184034206754,0.7289686274214111
16.38,0.06845471059286963,0.20677014356864082,0.6845471059286963
16.39,0.06374239897486954,0.20453742935625613,0.6374239897486953
16.40,0.05877852522924879,0.20225424859373753,0.5877852522924879
16.41,0.053582679497899736,0.19992116462177267,0.5358267949789973
16.42,0.048175367410171324,0.1975387530939225,0.4817536741017132
16.43,0.04257792915650805,0.19510760183458278,0.4257792915650805
16.44,0.036812455268466986,0.19262831069394695,0.3681245526846698
16.45,0.030901699437494958,0.19010149140000782,0.30901699437494956
16.46,0.02486898871648539,0.18752776740761484,0.24868988716485388
16.47,0.018738131458573455,0.18490777374465284,0.18738131458573454
16.48,0.012533323356431106,0.18224215685535317,0.12533323356431106
16.49,0.006279051952933124,0.17953157444079798,0.06279051952933123
16.50,4.886207583857646e-17,0.1767766952966369,4.886207583857646e-16
16.51,-0.0062790519529316085,0.17397819914807847,-0.06279051952931608
16.52,-0.012533323356429602,0.17113677648217254,-0.12533323356429601
16.53,-0.018738131458573358,0.1682531283774429,-0.18738131458573357
16.54,-0.02486898871648392,0.16532796633091373,-0.24868988716483917
16.55,-0.030901699437494864,0.16236201208254586,-0.3090169943749486
16.56,-0.036812455268466895,0.1593559974371729,-0.3681245526846689
16.57,-0.042577929156506676,0.1563106640839266,-0.4257792915650667
16.58,-0.04817536741016999,0.15322676341324498,-0.4817536741016999
16.59,-0.053582679497899646,0.15010505633147103,-0.5358267949789964
16.60,-0.058778525229247564,0.14694631307311812,-0.5877852522924756
16.61,-0.06374239897486836,0.14375131301082006,-0.6374239897486835
16.62,-0.06845471059286852,0.1405208444630329,-0.6845471059286852
16.63,-0.07289686274214006,0.13725570449953375,-0.7289686274214007
16.64,-0.07705132427757903,0.13395669874474908,-0.7705132427757903
16.65,-0.0809016994374942,0.13062464117898773,-0.8090169943749419
16.66,-0.08443279255020118,0.12726035393759316,-0.8443279255020117
16.67,-0.0876306680043869,0.12386466710810128,-0.876306680043869
16.68,-0.09048270524660196,0.1204384185254288,-0.9048270524660196
16.69,-0.09297764858882528,0.11698245356514315,-0.9297764858882527
16.70,-0.09510565162951512,0.11349762493488712,-0.9510565162951512
16.71,-0.096858316112863,0.10998479246397903,-0.96858316112863
16.72,-0.09822872507286859,0.10644482289126904,-0.9822872507286858
16.73,-0.09921147013144782,0.10287858965127708,-0.9921147013144781
16.74,-0.09980267284282711,0.09928697265869567,-0.998026728428271
16.75,-0.1,0.09567085809127278,-1.0
16.76,-0.0998026728428271,0.09203113817116881,-0.9980267284282709
16.77,-0.09921147013144796,0.08836871094481508,-0.9921147013144795
16.78,-0.0982287250728688,0.08468448006132263,-0.9822872507286879
16.79,-0.0968583161128633,0.08097935454953778,-0.968583161128633
16.80,-0.0951056516295155,0.0772542485937371,-0.9510565162951549
16.81,-0.0929776485888257,0.07351008130807689,-0.929776485888257
16.82,-0.09048270524660186,0.06974777650980718,-0.9048270524660186
16.83,-0.08763066800438679,0.06596826249134376,-0.8763066800438678
16.84,-0.08443279255020181,0.06217247179121403,-0.8443279255020181
16.85,-0.08090169943749405,0.05836134096397563,-0.8090169943749405
16.86,-0.07705132427757978,0.05453581034913645,-0.7705132427757978
16.87,-0.07289686274214088,0.05069682383912787,-0.7289686274214088
16.88,-0.06845471059286938,0.04684532864643159,-0.6845471059286937
16.89,-0.06374239897486926,0.04298227506985262,-0.6374239897486926
16.90,-0.058778525229248514,0.03910861626005863,-0.5877852522924851
16.91,-0.053582679497899445,0.03522530798439551,-0.5358267949789944
16.92,-0.048175367410171026,0.031333308391075704,-0.4817536741017102
16.93,-0.04257792915650774,0.02743357777276164,-0.4257792915650774
16.94,-0.036812455268467985,0.023527078329628706,-0.36812455268467986
16.95,-0.030901699437495985,0.019614773931962048,-0.30901699437495983
16.96,-0.024868988716485057,0.015697629882328073,-0.24868988716485055
16.97,-0.018738131458573115,0.01177661267741108,-0.18738131458573115
16.98,-0.012533323356430768,0.007852689769532288,-0.12533323356430767
16.99,-0.006279051952932781,0.003926829327956073,-0.0627905195293278
17.00,2.941628240500001e-16,-1.8385176503125006e-16,2.941628240500001e-15
17.01,0.006279051952931949,-0.003926829327955552,0.0627905195293195
17.02,0.01253332335642994,-0.00785268976953177,0.1253332335642994
17.03,0.018738131458572296,-0.01177661267741056,0.18738131458572296
17.04,0.024868988716484252,-0.015697629882327552,0.2486898871648425
17.05,0.03090169943749519,-0.01961477393196153,0.3090169943749519
17.06,0.03681245526846721,-0.023527078329628186,0.3681245526846721
17.07,0.04257792915650699,-0.027433577772761123,0.42577929156506983
17.08,0.04817536741017029,-0.03133330839107518,0.4817536741017029
17.09,0.05358267949789874,-0.035225307984394987,0.5358267949789873
17.10,0.05877852522924784,-0.03910861626005812,0.5877852522924784
17.11,0.06374239897486862,-0.042982275069852104,0.6374239897486862
17.12,0.06845471059286877,-0.046845328646431074,0.6845471059286877
17.13,0.0728968627421403,-0.05069682383912737,0.728968627421403
17.14,0.07705132427757926,-0.054535810349135946,0.7705132427757925
17.15,0.08090169943749356,-0.05836134096397513,0.8090169943749356
17.16,0.08443279255020136,-0.062172471791213525,0.8443279255020136
17.17,0.08763066800438639,-0.06596826249134324,0.8763066800438638
17.18,0.09048270524660151,-0.06974777650980668,0.904827052466015
17.19,0.0929776485888254,-0.0735100813080764,0.9297764858882539
17.20,0.09510565162951523,-0.0772542485937366,0.9510565162951523
17.21,0.0968583161128631,-0.0809793545495373,0.9685831611286309
17.22,0.09822872507286864,-0.08468448006132213,0.9822872507286864
17.23,0.09921147013144786,-0.08836871094481459,0.9921147013144785
17.24,0.09980267284282704,-0.09203113817116834,0.9980267284282703
17.25,0.1,-0.0956708580912723,1.0
17.26,0.09980267284282716,-0.0992869726586952,0.9980267284282716
17.27,0.09921147013144792,-0.10287858965127661,0.9921147013144791
17.28,0.09822872507286874,-0.10644482289126857,0.9822872507286874
17.29,0.09685831611286322,-0.10998479246397856,0.9685831611286321
17.30,0.09510565162951538,-0.11349762493488666,0.9510565162951538
17.31,0.09297764858882557,-0.1169824535651427,0.9297764858882557
17.32,0.09048270524660232,-0.12043841852542836,0.9048270524660231
17.33,0.0876306680043873,-0.12386466710810083,0.876306680043873
17.34,0.08443279255020163,-0.12726035393759272,0.8443279255020162
17.35,0.08090169943749469,-0.13062464117898728,0.8090169943749468
17.36,0.07705132427757956,-0.13395669874474864,0.7705132427757956
17.37,0.07289686274214065,-0.13725570449953334,0.7289686274214064
17.38,0.06845471059286913,-0.14052084446303248,0.6845471059286913
17.39,0.063742398974869,-0.14375131301081961,0.63742398974869
17.40,0.05877852522924824,-0.1469463130731177,0.5877852522924824
17.41,0.053582679497900354,-0.15010505633147062,0.5358267949790035
17.42,0.04817536741017072,-0.1532267634132446,0.48175367410170716
17.43,0.04257792915650743,-0.15631066408392622,0.42577929156507427
17.44,0.036812455268467666,-0.1593559974371725,0.36812455268467664
17.45,0.030901699437495656,-0.16236201208254547,0.30901699437495656
17.46,0.024868988716484724,-0.16532796633091335,0.24868988716484722
17.47,0.018738131458574177,-0.16825312837744252,0.18738131458574175
17.48,0.012533323356430426,-0.17113677648217218,0.12533323356430426
17.49,0.0062790519529324395,-0.17397819914807808,0.06279051952932439
17.50,7.838977475816238e-16,-0.17677669529663653,7.838977475816237e-15
17.51,-0.006279051952932293,-0.17953157444079762,-0.06279051952932292
17.52,-0.012533323356430282,-0.18224215685535283,-0.12533323356430282
17.53,-0.018738131458572636,-0.1849077737446525,-0.18738131458572635
17.54,-0.02486898871648458,-0.1875277674076145,-0.2486898871648458
17.55,-0.030901699437494164,-0.19010149140000748,-0.3090169943749416
17.56,-0.03681245526846621,-0.19262831069394662,-0.36812455268466204
17.57,-0.042577929156507294,-0.19510760183458245,-0.42577929156507294
17.58,-0.04817536741017059,-0.1975387530939222,-0.4817536741017059
17.59,-0.053582679497899036,-0.19992116462177234,-0.5358267949789903
17.60,-0.05877852522924812,-0.20225424859373722,-0.5877852522924811
17.61,-0.06374239897486889,-0.20453742935625582,-0.6374239897486889
17.62,-0.06845471059286902,-0.20677014356864054,-0.6845471059286902
17.63,-0.07289686274214055,-0.20895184034206726,-0.7289686274214054
17.64,-0.07705132427757856,-0.21108198137550357,-0.7705132427757856
17.65,-0.08090169943749376,-0.21316004108852252,-0.8090169943749376
17.66,-0.08443279255020154,-0.21518550675098594,-0.8443279255020154
17.67,-0.08763066800438656,-0.21715787860954794,-0.8763066800438655
17.68,-0.09048270524660165,-0.21907667001096567,-0.9048270524660165
17.69,-0.09297764858882551,-0.22094140752217364,-0.9297764858882551
17.70,-0.0951056516295149,-0.22275163104709153,-0.951056516295149
17.71,-0.09685831611286318,-0.22450689394015397,-0.9685831611286317
17.72,-0.09822872507286871,-0.22620676311650464,-0.9822872507286871
17.73,-0.09921147013144771,-0.22785081915886118,-0.9921147013144771
17.74,-0.09980267284282707,-0.22943865642099487,-0.9980267284282706
17.75,-0.1,-0.2309698831278217,-1.0
17.76,-0.09980267284282714,-0.23244412147206295,-0.9980267284282713
17.77,-0.09921147013144788,-0.23386100770746668,-0.9921147013144787
17.78,-0.09822872507286895,-0.23522019223855628,-0.9822872507286894
17.79,-0.09685831611286348,-0.23652133970688602,-0.9685831611286347
17.80,-0.09510565162951529,-0.23776412907378844,-0.9510565162951528
17.81,-0.09297764858882546,-0.2389482536995824,-0.9297764858882545
17.82,-0.09048270524660218,-0.24007342141923568,-0.9048270524660217
17.83,-0.08763066800438714,-0.24113935461444927,-0.8763066800438714
17.84,-0.08443279255020145,-0.2421457902821578,-0.8443279255020144
17.85,-0.08090169943749448,-0.24309248009941922,-0.8090169943749448
17.86,-0.07705132427757934,-0.24397919048468675,-0.7705132427757934
17.87,-0.07289686274214138,-0.2448057026554414,-0.7289686274214138
17.88,-0.06845471059286992,-0.245571812682172,-0.6845471059286992
17.89,-0.06374239897486873,-0.24627733153869352,-0.6374239897486873
17.90,-0.05877852522924796,-0.24692208514878436,-0.5877852522924796
17.91,-0.05358267949790007,-0.24750591442913936,-0.5358267949790007
17.92,-0.04817536741017042,-0.24802867532861955,-0.48175367410170417
17.93,-0.042577929156508404,-0.24849023886379484,-0.42577929156508404
17.94,-0.036812455268467346,-0.24889049115077003,-0.3681245526846735
17.95,-0.03090169943749533,-0.24922933343328196,-0.3090169943749533
17.96,-0.024868988716485768,-0.2495066821070679,-0.24868988716485768
17.97,-0.018738131458573837,-0.24972246874049245,-0.18738131458573837
17.98,-0.012533323356430088,-0.2498766400914329,-0.12533323356430087
17.99,-0.006279051952932097,-0.24996915812041515,-0.06279051952932097
18.00,-4.4087284769304716e-16,-0.25,-4.408728476930472e-15
18.01,0.006279051952931217,-0.24996915812041515,0.06279051952931217
18.02,0.012533323356429212,-0.2498766400914329,0.1253332335642921
18.03,0.018738131458572973,-0.24972246874049248,0.1873813145857297
18.04,0.024868988716484915,-0.24950668210706792,0.24868988716484913
18.05,0.03090169943749449,-0.24922933343328202,0.3090169943749449
